<?xml version="1.0" encoding="UTF-8"?>
<?xml-stylesheet type="text/xsl" href="define2-0-0.xsl"?>
<!--    This define.xml document was produced by XYBION For SEND      -->
<!-- ***************************************************************** -->
<!-- Please note that not all information can be generated solely from -->
<!-- source datasets, so be sure to fill in supplemental data as it    -->
<!-- applies to your organization and study.                           -->
<!-- ***************************************************************** -->
<ODM xmlns="http://www.cdisc.org/ns/odm/v1.3"
  xmlns:xlink="http://www.w3.org/1999/xlink"
  xmlns:def="http://www.cdisc.org/ns/def/v2.0"
  ODMVersion="1.3.2"
  FileType="Snapshot"
  FileOID="Covance Laboratories/Study8409511-Define2-XML_2.0.0"
  CreationDateTime="2019-09-18T14:17:15"
  SourceSystem="Savante"
  SourceSystemVersion="7.4.2 Build 21">
<Study OID="8409511">
<GlobalVariables>
  <StudyName>8409511</StudyName>
  <StudyDescription>Cardiovascular Safety Pharmacology Evaluation of LY3478045 (Compound 3478045) Administered by Oral Gavage to Male Telemetry-Instrumented Conscious Dogs</StudyDescription>
  <ProtocolName>2302030</ProtocolName>
</GlobalVariables>
<MetaDataVersion OID="CDISC-SEND.3.1"  Name="Study 8409511,Data Definitions"
  Description="Study 8409511,Data Definitions"
  def:DefineVersion="2.0.0"
  def:StandardName="SEND-IG"
  def:StandardVersion="3.1">
<!-- ******************************************** -->
<!-- Supporting Documents                         -->
<!-- ******************************************** -->
<def:SupplementalDoc>
  <def:DocumentRef leafID="LF.nSDRG"/>
</def:SupplementalDoc>
<!-- ******************************************** -->
<!-- Value List Definitions Section               -->
<!-- ******************************************** -->
<def:ValueListDef OID="VL.SUPPCL.QVAL">
<ItemRef ItemOID="IT.SUPPCL.QVAL.PHSENAME" OrderNumber="1" Mandatory="No">
 <def:WhereClauseRef WhereClauseOID="WC.SUPPCL.QNAM.PHSENAME"/>
</ItemRef><ItemRef ItemOID="IT.SUPPCL.QVAL.PHASEDAY" OrderNumber="2" Mandatory="No">
 <def:WhereClauseRef WhereClauseOID="WC.SUPPCL.QNAM.PHASEDAY"/>
</ItemRef></def:ValueListDef>
<def:ValueListDef OID="VL.TX.TXVAL">
<ItemRef ItemOID="IT.TX.TXVAL.SPGRPCD" OrderNumber="1" Mandatory="Yes">
 <def:WhereClauseRef WhereClauseOID="WC.TX.TXPARMCD.SPGRPCD"/>
</ItemRef><ItemRef ItemOID="IT.TX.TXVAL.GRPLBL" OrderNumber="2" Mandatory="Yes">
 <def:WhereClauseRef WhereClauseOID="WC.TX.TXPARMCD.GRPLBL"/>
</ItemRef></def:ValueListDef>
<def:ValueListDef OID="VL.SUPPDS.QVAL">
<ItemRef ItemOID="IT.SUPPDS.QVAL.PHSENAME" OrderNumber="1" Mandatory="No">
 <def:WhereClauseRef WhereClauseOID="WC.SUPPDS.QNAM.PHSENAME"/>
</ItemRef><ItemRef ItemOID="IT.SUPPDS.QVAL.PHASEDAY" OrderNumber="2" Mandatory="No">
 <def:WhereClauseRef WhereClauseOID="WC.SUPPDS.QNAM.PHASEDAY"/>
</ItemRef></def:ValueListDef>
<def:ValueListDef OID="VL.SUPPBG.QVAL">
<ItemRef ItemOID="IT.SUPPBG.QVAL.PHSNAME2" OrderNumber="1" Mandatory="No">
 <def:WhereClauseRef WhereClauseOID="WC.SUPPBG.QNAM.PHSNAME2"/>
</ItemRef><ItemRef ItemOID="IT.SUPPBG.QVAL.PHSEDAY2" OrderNumber="2" Mandatory="No">
 <def:WhereClauseRef WhereClauseOID="WC.SUPPBG.QNAM.PHSEDAY2"/>
</ItemRef></def:ValueListDef>
<def:ValueListDef OID="VL.TS.TSVAL">
<ItemRef ItemOID="IT.TS.TSVAL.STITLE" OrderNumber="1" Mandatory="Yes">
 <def:WhereClauseRef WhereClauseOID="WC.TS.TSPARMCD.STITLE"/>
</ItemRef><ItemRef ItemOID="IT.TS.TSVAL.TRT" OrderNumber="2" Mandatory="Yes">
 <def:WhereClauseRef WhereClauseOID="WC.TS.TSPARMCD.TRT"/>
</ItemRef><ItemRef ItemOID="IT.TS.TSVAL.AGEU" OrderNumber="3" Mandatory="Yes">
 <def:WhereClauseRef WhereClauseOID="WC.TS.TSPARMCD.AGEU"/>
</ItemRef><ItemRef ItemOID="IT.TS.TSVAL.SDESIGN" OrderNumber="4" Mandatory="Yes">
 <def:WhereClauseRef WhereClauseOID="WC.TS.TSPARMCD.SDESIGN"/>
</ItemRef><ItemRef ItemOID="IT.TS.TSVAL.ROUTE" OrderNumber="5" Mandatory="Yes">
 <def:WhereClauseRef WhereClauseOID="WC.TS.TSPARMCD.ROUTE"/>
</ItemRef><ItemRef ItemOID="IT.TS.TSVAL.SNDIGVER" OrderNumber="6" Mandatory="Yes">
 <def:WhereClauseRef WhereClauseOID="WC.TS.TSPARMCD.SNDIGVER"/>
</ItemRef><ItemRef ItemOID="IT.TS.TSVAL.SPECIES" OrderNumber="7" Mandatory="Yes">
 <def:WhereClauseRef WhereClauseOID="WC.TS.TSPARMCD.SPECIES"/>
</ItemRef><ItemRef ItemOID="IT.TS.TSVAL.SSTYP" OrderNumber="8" Mandatory="Yes">
 <def:WhereClauseRef WhereClauseOID="WC.TS.TSPARMCD.SSTYP"/>
</ItemRef><ItemRef ItemOID="IT.TS.TSVAL.STCAT" OrderNumber="9" Mandatory="Yes">
 <def:WhereClauseRef WhereClauseOID="WC.TS.TSPARMCD.STCAT"/>
</ItemRef><ItemRef ItemOID="IT.TS.TSVAL.STRAIN" OrderNumber="10" Mandatory="Yes">
 <def:WhereClauseRef WhereClauseOID="WC.TS.TSPARMCD.STRAIN"/>
</ItemRef><ItemRef ItemOID="IT.TS.TSVAL.TFCNTRY" OrderNumber="11" Mandatory="No">
 <def:WhereClauseRef WhereClauseOID="WC.TS.TSPARMCD.TFCNTRY"/>
</ItemRef><ItemRef ItemOID="IT.TS.TSVAL.SEXPOP" OrderNumber="12" Mandatory="No">
 <def:WhereClauseRef WhereClauseOID="WC.TS.TSPARMCD.SEXPOP"/>
</ItemRef><ItemRef ItemOID="IT.TS.TSVAL.GLPFL" OrderNumber="13" Mandatory="Yes">
 <def:WhereClauseRef WhereClauseOID="WC.TS.TSPARMCD.GLPFL"/>
</ItemRef></def:ValueListDef>
<def:ValueListDef OID="VL.SUPPBW.QVAL">
<ItemRef ItemOID="IT.SUPPBW.QVAL.PHSENAME" OrderNumber="1" Mandatory="No">
 <def:WhereClauseRef WhereClauseOID="WC.SUPPBW.QNAM.PHSENAME"/>
</ItemRef><ItemRef ItemOID="IT.SUPPBW.QVAL.PHASEDAY" OrderNumber="2" Mandatory="No">
 <def:WhereClauseRef WhereClauseOID="WC.SUPPBW.QNAM.PHASEDAY"/>
</ItemRef></def:ValueListDef>
<!-- ******************************************** -->
<!-- WhereClause Definitions Definitions Section  -->
<!-- ******************************************** -->
<def:WhereClauseDef OID="WC.SUPPCL.QNAM.PHSENAME"><RangeCheck SoftHard="Soft" def:ItemOID="IT.SUPPCL.QNAM" Comparator="EQ"> <CheckValue>PHSENAME</CheckValue>
</RangeCheck> </def:WhereClauseDef>
<def:WhereClauseDef OID="WC.SUPPCL.QNAM.PHASEDAY"><RangeCheck SoftHard="Soft" def:ItemOID="IT.SUPPCL.QNAM" Comparator="EQ"> <CheckValue>PHASEDAY</CheckValue>
</RangeCheck> </def:WhereClauseDef>
<def:WhereClauseDef OID="WC.TX.TXPARMCD.SPGRPCD"><RangeCheck SoftHard="Soft" def:ItemOID="IT.TX.TXPARMCD" Comparator="EQ"> <CheckValue>SPGRPCD</CheckValue>
</RangeCheck> </def:WhereClauseDef>
<def:WhereClauseDef OID="WC.TX.TXPARMCD.GRPLBL"><RangeCheck SoftHard="Soft" def:ItemOID="IT.TX.TXPARMCD" Comparator="EQ"> <CheckValue>GRPLBL</CheckValue>
</RangeCheck> </def:WhereClauseDef>
<def:WhereClauseDef OID="WC.SUPPDS.QNAM.PHSENAME"><RangeCheck SoftHard="Soft" def:ItemOID="IT.SUPPDS.QNAM" Comparator="EQ"> <CheckValue>PHSENAME</CheckValue>
</RangeCheck> </def:WhereClauseDef>
<def:WhereClauseDef OID="WC.SUPPDS.QNAM.PHASEDAY"><RangeCheck SoftHard="Soft" def:ItemOID="IT.SUPPDS.QNAM" Comparator="EQ"> <CheckValue>PHASEDAY</CheckValue>
</RangeCheck> </def:WhereClauseDef>
<def:WhereClauseDef OID="WC.SUPPBG.QNAM.PHSNAME2"><RangeCheck SoftHard="Soft" def:ItemOID="IT.SUPPBG.QNAM" Comparator="EQ"> <CheckValue>PHSNAME2</CheckValue>
</RangeCheck> </def:WhereClauseDef>
<def:WhereClauseDef OID="WC.SUPPBG.QNAM.PHSEDAY2"><RangeCheck SoftHard="Soft" def:ItemOID="IT.SUPPBG.QNAM" Comparator="EQ"> <CheckValue>PHSEDAY2</CheckValue>
</RangeCheck> </def:WhereClauseDef>
<def:WhereClauseDef OID="WC.TS.TSPARMCD.STITLE"><RangeCheck SoftHard="Soft" def:ItemOID="IT.TS.TSPARMCD" Comparator="EQ"> <CheckValue>STITLE</CheckValue>
</RangeCheck> </def:WhereClauseDef>
<def:WhereClauseDef OID="WC.TS.TSPARMCD.TRT"><RangeCheck SoftHard="Soft" def:ItemOID="IT.TS.TSPARMCD" Comparator="EQ"> <CheckValue>TRT</CheckValue>
</RangeCheck> </def:WhereClauseDef>
<def:WhereClauseDef OID="WC.TS.TSPARMCD.AGEU"><RangeCheck SoftHard="Soft" def:ItemOID="IT.TS.TSPARMCD" Comparator="EQ"> <CheckValue>AGEU</CheckValue>
</RangeCheck> </def:WhereClauseDef>
<def:WhereClauseDef OID="WC.TS.TSPARMCD.SDESIGN"><RangeCheck SoftHard="Soft" def:ItemOID="IT.TS.TSPARMCD" Comparator="EQ"> <CheckValue>SDESIGN</CheckValue>
</RangeCheck> </def:WhereClauseDef>
<def:WhereClauseDef OID="WC.TS.TSPARMCD.ROUTE"><RangeCheck SoftHard="Soft" def:ItemOID="IT.TS.TSPARMCD" Comparator="EQ"> <CheckValue>ROUTE</CheckValue>
</RangeCheck> </def:WhereClauseDef>
<def:WhereClauseDef OID="WC.TS.TSPARMCD.SNDIGVER"><RangeCheck SoftHard="Soft" def:ItemOID="IT.TS.TSPARMCD" Comparator="EQ"> <CheckValue>SNDIGVER</CheckValue>
</RangeCheck> </def:WhereClauseDef>
<def:WhereClauseDef OID="WC.TS.TSPARMCD.SPECIES"><RangeCheck SoftHard="Soft" def:ItemOID="IT.TS.TSPARMCD" Comparator="EQ"> <CheckValue>SPECIES</CheckValue>
</RangeCheck> </def:WhereClauseDef>
<def:WhereClauseDef OID="WC.TS.TSPARMCD.SSTYP"><RangeCheck SoftHard="Soft" def:ItemOID="IT.TS.TSPARMCD" Comparator="EQ"> <CheckValue>SSTYP</CheckValue>
</RangeCheck> </def:WhereClauseDef>
<def:WhereClauseDef OID="WC.TS.TSPARMCD.STCAT"><RangeCheck SoftHard="Soft" def:ItemOID="IT.TS.TSPARMCD" Comparator="EQ"> <CheckValue>STCAT</CheckValue>
</RangeCheck> </def:WhereClauseDef>
<def:WhereClauseDef OID="WC.TS.TSPARMCD.STRAIN"><RangeCheck SoftHard="Soft" def:ItemOID="IT.TS.TSPARMCD" Comparator="EQ"> <CheckValue>STRAIN</CheckValue>
</RangeCheck> </def:WhereClauseDef>
<def:WhereClauseDef OID="WC.TS.TSPARMCD.TFCNTRY"><RangeCheck SoftHard="Soft" def:ItemOID="IT.TS.TSPARMCD" Comparator="EQ"> <CheckValue>TFCNTRY</CheckValue>
</RangeCheck> </def:WhereClauseDef>
<def:WhereClauseDef OID="WC.TS.TSPARMCD.SEXPOP"><RangeCheck SoftHard="Soft" def:ItemOID="IT.TS.TSPARMCD" Comparator="EQ"> <CheckValue>SEXPOP</CheckValue>
</RangeCheck> </def:WhereClauseDef>
<def:WhereClauseDef OID="WC.TS.TSPARMCD.GLPFL"><RangeCheck SoftHard="Soft" def:ItemOID="IT.TS.TSPARMCD" Comparator="EQ"> <CheckValue>GLPFL</CheckValue>
</RangeCheck> </def:WhereClauseDef>
<def:WhereClauseDef OID="WC.SUPPBW.QNAM.PHSENAME"><RangeCheck SoftHard="Soft" def:ItemOID="IT.SUPPBW.QNAM" Comparator="EQ"> <CheckValue>PHSENAME</CheckValue>
</RangeCheck> </def:WhereClauseDef>
<def:WhereClauseDef OID="WC.SUPPBW.QNAM.PHASEDAY"><RangeCheck SoftHard="Soft" def:ItemOID="IT.SUPPBW.QNAM" Comparator="EQ"> <CheckValue>PHASEDAY</CheckValue>
</RangeCheck> </def:WhereClauseDef>
<!-- ******************************************** -->
<!-- ItemGroupDef Definitions Section             -->
<!-- ******************************************** -->
<ItemGroupDef OID="IG.CO" Domain="CO" Name="CO" Repeating="No" IsReferenceData="No" SASDatasetName="CO" Purpose="Tabulation"
  def:Structure="One record per comment"
  def:Class="SPECIAL PURPOSE"
 def:ArchiveLocationID="Location.CO">
<Description> <TranslatedText xml:lang="en">Comments</TranslatedText> </Description>
<ItemRef ItemOID="IT.CO.STUDYID" OrderNumber="1" Mandatory="Yes"  KeySequence="1"  Role="Identifier"/>
<ItemRef ItemOID="IT.CO.DOMAIN" OrderNumber="2" Mandatory="Yes"  Role="Identifier"/>
<ItemRef ItemOID="IT.CO.RDOMAIN" OrderNumber="3" Mandatory="No"  KeySequence="2"  Role="Record Qualifier"/>
<ItemRef ItemOID="IT.CO.USUBJID" OrderNumber="4" Mandatory="No"  KeySequence="3"  Role="Identifier"/>
<ItemRef ItemOID="IT.CO.COSEQ" OrderNumber="5" Mandatory="Yes"  Role="Identifier"/>
<ItemRef ItemOID="IT.CO.IDVAR" OrderNumber="6" Mandatory="No"  KeySequence="4"  Role="Record Qualifier"/>
<ItemRef ItemOID="IT.CO.IDVARVAL" OrderNumber="7" Mandatory="No"  KeySequence="5"  Role="Record Qualifier"/>
<ItemRef ItemOID="IT.CO.COVAL" OrderNumber="8" Mandatory="Yes"  Role="Topic"/>
<ItemRef ItemOID="IT.CO.COVAL1" OrderNumber="9" Mandatory="No"  Role="Topic"/>
<ItemRef ItemOID="IT.CODTC" OrderNumber="10" Mandatory="No"  KeySequence="6"  Role="Timing"/>
<def:leaf ID="Location.CO" xlink:href="co.xpt">
<def:title>co.xpt</def:title>
</def:leaf>
</ItemGroupDef>
<ItemGroupDef OID="IG.DM" Domain="DM" Name="DM" Repeating="No" IsReferenceData="No" SASDatasetName="DM" Purpose="Tabulation"
  def:Structure="One record per subject"
  def:Class="SPECIAL PURPOSE"
 def:ArchiveLocationID="Location.DM">
<Description> <TranslatedText xml:lang="en">Demographics</TranslatedText> </Description>
<ItemRef ItemOID="IT.DM.STUDYID" OrderNumber="1" Mandatory="Yes"  KeySequence="1"  Role="Identifier"/>
<ItemRef ItemOID="IT.DM.DOMAIN" OrderNumber="2" Mandatory="Yes"  Role="Identifier"/>
<ItemRef ItemOID="IT.DM.USUBJID" OrderNumber="3" Mandatory="Yes"  KeySequence="2"  Role="Identifier"/>
<ItemRef ItemOID="IT.DM.SUBJID" OrderNumber="4" Mandatory="Yes"  Role="Topic"/>
<ItemRef ItemOID="IT.RFSTDTC" OrderNumber="5" Mandatory="Yes"  Role="Record Qualifier"/>
<ItemRef ItemOID="IT.RFENDTC" OrderNumber="6" Mandatory="No"  Role="Record Qualifier"/>
<ItemRef ItemOID="IT.DM.RFXSTDTC" OrderNumber="7" Mandatory="No"  Role="Record Qualifier"/>
<ItemRef ItemOID="IT.DM.RFXENDTC" OrderNumber="8" Mandatory="No"  Role="Record Qualifier"/>
<ItemRef ItemOID="IT.DM.BRTHDTC" OrderNumber="9" Mandatory="No"  Role="Record Qualifier"/>
<ItemRef ItemOID="IT.AGE" OrderNumber="10" Mandatory="No"  Role="Record Qualifier"/>
<ItemRef ItemOID="IT.DM.AGEU" OrderNumber="11" Mandatory="No"  Role="Variable Qualifier"/>
<ItemRef ItemOID="IT.DM.SEX" OrderNumber="12" Mandatory="Yes"  Role="Record Qualifier"/>
<ItemRef ItemOID="IT.DM.ARMCD" OrderNumber="13" Mandatory="No"  Role="Record Qualifier"/>
<ItemRef ItemOID="IT.DM.ARM" OrderNumber="14" Mandatory="No"  Role="Synonym Qualifier"/>
<ItemRef ItemOID="IT.DM.SETCD" OrderNumber="15" Mandatory="Yes"  Role="Record Qualifier"/>
<def:leaf ID="Location.DM" xlink:href="dm.xpt">
<def:title>dm.xpt</def:title>
</def:leaf>
</ItemGroupDef>
<ItemGroupDef OID="IG.SE" Domain="SE" Name="SE" Repeating="No" IsReferenceData="Yes" SASDatasetName="SE" Purpose="Tabulation"
  def:Structure="One record per element experienced per subject"
  def:Class="SPECIAL PURPOSE"
 def:ArchiveLocationID="Location.SE">
<Description> <TranslatedText xml:lang="en">Subject Elements</TranslatedText> </Description>
<ItemRef ItemOID="IT.SE.STUDYID" OrderNumber="1" Mandatory="Yes"  KeySequence="1"  Role="Identifier"/>
<ItemRef ItemOID="IT.SE.DOMAIN" OrderNumber="2" Mandatory="Yes"  Role="Identifier"/>
<ItemRef ItemOID="IT.SE.USUBJID" OrderNumber="3" Mandatory="Yes"  KeySequence="2"  Role="Identifier"/>
<ItemRef ItemOID="IT.SE.SESEQ" OrderNumber="4" Mandatory="Yes"  Role="Identifier"/>
<ItemRef ItemOID="IT.SE.ETCD" OrderNumber="5" Mandatory="Yes"  KeySequence="3"  Role="Topic"/>
<ItemRef ItemOID="IT.SE.ELEMENT" OrderNumber="6" Mandatory="No"  Role="Synonym Qualifier"/>
<ItemRef ItemOID="IT.SE.SESTDTC" OrderNumber="7" Mandatory="Yes"  KeySequence="4"  Role="Timing"/>
<ItemRef ItemOID="IT.SE.SEENDTC" OrderNumber="8" Mandatory="No"  Role="Timing"/>
<def:leaf ID="Location.SE" xlink:href="se.xpt">
<def:title>se.xpt</def:title>
</def:leaf>
</ItemGroupDef>
<ItemGroupDef OID="IG.EX" Domain="EX" Name="EX" Repeating="Yes" IsReferenceData="No" SASDatasetName="EX" Purpose="Tabulation"
  def:Structure="One record per constant dosing interval per treatment per subject or pool"
  def:Class="INTERVENTIONS"
 def:ArchiveLocationID="Location.EX">
<Description> <TranslatedText xml:lang="en">Exposure</TranslatedText> </Description>
<ItemRef ItemOID="IT.EX.STUDYID" OrderNumber="1" Mandatory="Yes"  KeySequence="1"  Role="Identifier"/>
<ItemRef ItemOID="IT.EX.DOMAIN" OrderNumber="2" Mandatory="Yes"  Role="Identifier"/>
<ItemRef ItemOID="IT.EX.USUBJID" OrderNumber="3" Mandatory="No"  KeySequence="2"  Role="Identifier"/>
<ItemRef ItemOID="IT.EX.EXSEQ" OrderNumber="4" Mandatory="Yes"  Role="Identifier"/>
<ItemRef ItemOID="IT.EX.EXTRT" OrderNumber="5" Mandatory="Yes"  KeySequence="3"  Role="Topic"/>
<ItemRef ItemOID="IT.EXDOSE" OrderNumber="6" Mandatory="No"  Role="Record Qualifier"/>
<ItemRef ItemOID="IT.EX.EXDOSU" OrderNumber="7" Mandatory="No"  Role="Variable Qualifier"/>
<ItemRef ItemOID="IT.EX.EXDOSFRM" OrderNumber="8" Mandatory="No"  Role="Variable Qualifier"/>
<ItemRef ItemOID="IT.EX.EXDOSFRQ" OrderNumber="9" Mandatory="Yes"  Role="Variable Qualifier"/>
<ItemRef ItemOID="IT.EX.EXROUTE" OrderNumber="10" Mandatory="Yes"  Role="Variable Qualifier"/>
<ItemRef ItemOID="IT.EX.EXLOT" OrderNumber="11" Mandatory="No"  Role="Record Qualifier"/>
<ItemRef ItemOID="IT.EX.EXTRTV" OrderNumber="12" Mandatory="No"  Role="Record Qualifier"/>
<ItemRef ItemOID="IT.EX.EXVAMT" OrderNumber="13" Mandatory="No"  Role="Record Qualifier"/>
<ItemRef ItemOID="IT.EX.EXVAMTU" OrderNumber="14" Mandatory="No"  Role="Variable Qualifier"/>
<ItemRef ItemOID="IT.EX.EXSTDTC" OrderNumber="15" Mandatory="No"  KeySequence="4"  Role="Timing"/>
<ItemRef ItemOID="IT.EXSTDY" OrderNumber="16" Mandatory="No"  Role="Timing"/>
<ItemRef ItemOID="IT.EX.EXTPT" OrderNumber="17" Mandatory="No"  Role="Timing"/>
<ItemRef ItemOID="IT.EX.EXTPTNUM" OrderNumber="18" Mandatory="No"  KeySequence="5"  Role="Timing"/>
<def:leaf ID="Location.EX" xlink:href="ex.xpt">
<def:title>ex.xpt</def:title>
</def:leaf>
</ItemGroupDef>
<ItemGroupDef OID="IG.DS" Domain="DS" Name="DS" Repeating="No" IsReferenceData="No" SASDatasetName="DS" Purpose="Tabulation"
  def:Structure="One record per subject"
  def:Class="EVENTS"
 def:ArchiveLocationID="Location.DS">
<Description> <TranslatedText xml:lang="en">Disposition</TranslatedText> </Description>
<ItemRef ItemOID="IT.DS.STUDYID" OrderNumber="1" Mandatory="Yes"  KeySequence="1"  Role="Identifier"/>
<ItemRef ItemOID="IT.DS.DOMAIN" OrderNumber="2" Mandatory="Yes"  Role="Identifier"/>
<ItemRef ItemOID="IT.DS.USUBJID" OrderNumber="3" Mandatory="Yes"  KeySequence="2"  Role="Identifier"/>
<ItemRef ItemOID="IT.DS.DSSEQ" OrderNumber="4" Mandatory="Yes"  Role="Identifier"/>
<ItemRef ItemOID="IT.DS.DSTERM" OrderNumber="5" Mandatory="Yes"  Role="Topic"/>
<ItemRef ItemOID="IT.DS.DSDECOD" OrderNumber="6" Mandatory="Yes"  Role="Synonym Qualifier"/>
<ItemRef ItemOID="IT.DS.DSUSCHFL" OrderNumber="7" Mandatory="No"  Role="Record Qualifier"/>
<ItemRef ItemOID="IT.DS.VISITDY" OrderNumber="8" Mandatory="No"  Role="Timing"/>
<ItemRef ItemOID="IT.DS.DSSTDTC" OrderNumber="9" Mandatory="Yes"  Role="Timing"/>
<ItemRef ItemOID="IT.DSSTDY" OrderNumber="10" Mandatory="No"  Role="Timing"/>
<ItemRef ItemOID="IT.DSNOMDY" OrderNumber="11" Mandatory="No"  Role="Timing"/>
<def:leaf ID="Location.DS" xlink:href="ds.xpt">
<def:title>ds.xpt</def:title>
</def:leaf>
</ItemGroupDef>
<ItemGroupDef OID="IG.BW" Domain="BW" Name="BW" Repeating="Yes" IsReferenceData="No" SASDatasetName="BW" Purpose="Tabulation"
  def:Structure="One record per test per observation time per subject"
  def:Class="FINDINGS"
 def:ArchiveLocationID="Location.BW">
<Description> <TranslatedText xml:lang="en">Body Weight</TranslatedText> </Description>
<ItemRef ItemOID="IT.BW.STUDYID" OrderNumber="1" Mandatory="Yes"  KeySequence="1"  Role="Identifier"/>
<ItemRef ItemOID="IT.BW.DOMAIN" OrderNumber="2" Mandatory="Yes"  Role="Identifier"/>
<ItemRef ItemOID="IT.BW.USUBJID" OrderNumber="3" Mandatory="Yes"  KeySequence="2"  Role="Identifier"/>
<ItemRef ItemOID="IT.BW.BWSEQ" OrderNumber="4" Mandatory="Yes"  Role="Identifier"/>
<ItemRef ItemOID="IT.BW.BWTESTCD" OrderNumber="5" Mandatory="Yes"  KeySequence="3"  Role="Topic"/>
<ItemRef ItemOID="IT.BW.BWTEST" OrderNumber="6" Mandatory="Yes"  Role="Synonym Qualifier"/>
<ItemRef ItemOID="IT.BW.BWORRES" OrderNumber="7" Mandatory="No"  Role="Result Qualifier"/>
<ItemRef ItemOID="IT.BW.BWORRESU" OrderNumber="8" Mandatory="No"  Role="Variable Qualifier"/>
<ItemRef ItemOID="IT.BW.BWSTRESC" OrderNumber="9" Mandatory="No"  Role="Result Qualifier"/>
<ItemRef ItemOID="IT.BW.BWSTRESN" OrderNumber="10" Mandatory="No"  Role="Result Qualifier"/>
<ItemRef ItemOID="IT.BW.BWSTRESU" OrderNumber="11" Mandatory="No"  Role="Variable Qualifier"/>
<ItemRef ItemOID="IT.BWBLFL" OrderNumber="12" Mandatory="No"  Role="Record Qualifier"/>
<ItemRef ItemOID="IT.BW.VISITDY" OrderNumber="13" Mandatory="No"  Role="Timing"/>
<ItemRef ItemOID="IT.BW.BWDTC" OrderNumber="14" Mandatory="No"  KeySequence="4"  Role="Timing"/>
<ItemRef ItemOID="IT.BWDY" OrderNumber="15" Mandatory="No"  Role="Timing"/>
<ItemRef ItemOID="IT.BWNOMDY" OrderNumber="16" Mandatory="No"  Role="Timing"/>
<ItemRef ItemOID="IT.BWNOMLBL" OrderNumber="17" Mandatory="No"  Role="Timing"/>
<def:leaf ID="Location.BW" xlink:href="bw.xpt">
<def:title>bw.xpt</def:title>
</def:leaf>
</ItemGroupDef>
<ItemGroupDef OID="IG.BG" Domain="BG" Name="BG" Repeating="Yes" IsReferenceData="No" SASDatasetName="BG" Purpose="Tabulation"
  def:Structure="One record per test per interval per subject"
  def:Class="FINDINGS"
 def:ArchiveLocationID="Location.BG">
<Description> <TranslatedText xml:lang="en">Body Weight Gains</TranslatedText> </Description>
<ItemRef ItemOID="IT.BG.STUDYID" OrderNumber="1" Mandatory="Yes"  KeySequence="1"  Role="Identifier"/>
<ItemRef ItemOID="IT.BG.DOMAIN" OrderNumber="2" Mandatory="Yes"  Role="Identifier"/>
<ItemRef ItemOID="IT.BG.USUBJID" OrderNumber="3" Mandatory="Yes"  KeySequence="2"  Role="Identifier"/>
<ItemRef ItemOID="IT.BG.BGSEQ" OrderNumber="4" Mandatory="Yes"  Role="Identifier"/>
<ItemRef ItemOID="IT.BG.BGTESTCD" OrderNumber="5" Mandatory="Yes"  KeySequence="3"  Role="Topic"/>
<ItemRef ItemOID="IT.BG.BGTEST" OrderNumber="6" Mandatory="Yes"  Role="Synonym Qualifier"/>
<ItemRef ItemOID="IT.BG.BGORRES" OrderNumber="7" Mandatory="No"  Role="Result Qualifier"/>
<ItemRef ItemOID="IT.BG.BGORRESU" OrderNumber="8" Mandatory="No"  Role="Variable Qualifier"/>
<ItemRef ItemOID="IT.BG.BGSTRESC" OrderNumber="9" Mandatory="No"  Role="Result Qualifier"/>
<ItemRef ItemOID="IT.BG.BGSTRESN" OrderNumber="10" Mandatory="No"  Role="Result Qualifier"/>
<ItemRef ItemOID="IT.BG.BGSTRESU" OrderNumber="11" Mandatory="No"  Role="Variable Qualifier"/>
<ItemRef ItemOID="IT.BG.BGDTC" OrderNumber="12" Mandatory="No"  KeySequence="4"  Role="Timing"/>
<ItemRef ItemOID="IT.BG.BGENDTC" OrderNumber="13" Mandatory="No"  KeySequence="5"  Role="Timing"/>
<ItemRef ItemOID="IT.BGDY" OrderNumber="14" Mandatory="No"  Role="Timing"/>
<ItemRef ItemOID="IT.BGENDY" OrderNumber="15" Mandatory="No"  Role="Timing"/>
<def:leaf ID="Location.BG" xlink:href="bg.xpt">
<def:title>bg.xpt</def:title>
</def:leaf>
</ItemGroupDef>
<ItemGroupDef OID="IG.CV" Domain="CV" Name="CV" Repeating="Yes" IsReferenceData="No" SASDatasetName="CV" Purpose="Tabulation"
  def:Structure="One record per test per observation time or evaluation interval per subject"
  def:Class="FINDINGS"
 def:ArchiveLocationID="Location.CV">
<Description> <TranslatedText xml:lang="en">Cardiovascular</TranslatedText> </Description>
<ItemRef ItemOID="IT.CV.STUDYID" OrderNumber="1" Mandatory="Yes"  KeySequence="1"  Role="Identifier"/>
<ItemRef ItemOID="IT.CV.DOMAIN" OrderNumber="2" Mandatory="Yes"  Role="Identifier"/>
<ItemRef ItemOID="IT.CV.USUBJID" OrderNumber="3" Mandatory="Yes"  KeySequence="2"  Role="Identifier"/>
<ItemRef ItemOID="IT.CV.CVSEQ" OrderNumber="4" Mandatory="Yes"  Role="Identifier"/>
<ItemRef ItemOID="IT.CV.CVTESTCD" OrderNumber="5" Mandatory="Yes"  KeySequence="3"  Role="Topic"/>
<ItemRef ItemOID="IT.CV.CVTEST" OrderNumber="6" Mandatory="Yes"  Role="Synonym Qualifier"/>
<ItemRef ItemOID="IT.CV.CVPOS" OrderNumber="7" Mandatory="No"  Role="Record Qualifier"/>
<ItemRef ItemOID="IT.CV.CVORRES" OrderNumber="8" Mandatory="No"  Role="Result Qualifier"/>
<ItemRef ItemOID="IT.CV.CVORRESU" OrderNumber="9" Mandatory="No"  Role="Variable Qualifier"/>
<ItemRef ItemOID="IT.CV.CVSTRESC" OrderNumber="10" Mandatory="No"  Role="Result Qualifier"/>
<ItemRef ItemOID="IT.CV.CVSTRESN" OrderNumber="11" Mandatory="No"  Role="Result Qualifier"/>
<ItemRef ItemOID="IT.CV.CVSTRESU" OrderNumber="12" Mandatory="No"  Role="Variable Qualifier"/>
<ItemRef ItemOID="IT.CV.CVMETHOD" OrderNumber="13" Mandatory="No"  Role="Record Qualifier"/>
<ItemRef ItemOID="IT.CV.CVCSTATE" OrderNumber="14" Mandatory="No"  Role="Record Qualifier"/>
<ItemRef ItemOID="IT.CVBLFL" OrderNumber="15" Mandatory="No"  Role="Record Qualifier"/>
<ItemRef ItemOID="IT.CV.CVDTC" OrderNumber="16" Mandatory="No"  Role="Timing"/>
<ItemRef ItemOID="IT.CV.CVENDTC" OrderNumber="17" Mandatory="No"  Role="Timing"/>
<ItemRef ItemOID="IT.CVDY" OrderNumber="18" Mandatory="No"  Role="Timing"/>
<ItemRef ItemOID="IT.CVENDY" OrderNumber="19" Mandatory="No"  Role="Timing"/>
<ItemRef ItemOID="IT.CVNOMDY" OrderNumber="20" Mandatory="No"  Role="Timing"/>
<ItemRef ItemOID="IT.CV.CVTPT" OrderNumber="21" Mandatory="No"  Role="Timing"/>
<ItemRef ItemOID="IT.CV.CVTPTNUM" OrderNumber="22" Mandatory="No"  KeySequence="5"  Role="Timing"/>
<ItemRef ItemOID="IT.CV.CVELTM" OrderNumber="23" Mandatory="No"  Role="Timing"/>
<ItemRef ItemOID="IT.CV.CVTPTREF" OrderNumber="24" Mandatory="No"  KeySequence="4"  Role="Timing"/>
<ItemRef ItemOID="IT.CV.CVRFTDTC" OrderNumber="25" Mandatory="No"  Role="Timing"/>
<ItemRef ItemOID="IT.CV.CVSTINT" OrderNumber="26" Mandatory="No"  Role="Timing"/>
<ItemRef ItemOID="IT.CV.CVENINT" OrderNumber="27" Mandatory="No"  Role="Timing"/>
<def:leaf ID="Location.CV" xlink:href="cv.xpt">
<def:title>cv.xpt</def:title>
</def:leaf>
</ItemGroupDef>
<ItemGroupDef OID="IG.CL" Domain="CL" Name="CL" Repeating="Yes" IsReferenceData="No" SASDatasetName="CL" Purpose="Tabulation"
  def:Structure="One record per finding per observation time per subject"
  def:Class="FINDINGS"
 def:ArchiveLocationID="Location.CL">
<Description> <TranslatedText xml:lang="en">Clinical Observations</TranslatedText> </Description>
<ItemRef ItemOID="IT.CL.STUDYID" OrderNumber="1" Mandatory="Yes"  KeySequence="1"  Role="Identifier"/>
<ItemRef ItemOID="IT.CL.DOMAIN" OrderNumber="2" Mandatory="Yes"  Role="Identifier"/>
<ItemRef ItemOID="IT.CL.USUBJID" OrderNumber="3" Mandatory="No"  KeySequence="2"  Role="Identifier"/>
<ItemRef ItemOID="IT.CL.CLSEQ" OrderNumber="4" Mandatory="Yes"  Role="Identifier"/>
<ItemRef ItemOID="IT.CLGRPID" OrderNumber="5" Mandatory="No"  Role="Identifier"/>
<ItemRef ItemOID="IT.CL.CLTESTCD" OrderNumber="6" Mandatory="Yes"  KeySequence="3"  Role="Topic"/>
<ItemRef ItemOID="IT.CL.CLTEST" OrderNumber="7" Mandatory="Yes"  Role="Synonym Qualifier"/>
<ItemRef ItemOID="IT.CL.CLCAT" OrderNumber="8" Mandatory="Yes"  KeySequence="4"  Role="Grouping Qualifier"/>
<ItemRef ItemOID="IT.CL.CLSCAT" OrderNumber="9" Mandatory="No"  KeySequence="8"  Role="Grouping Qualifier"/>
<ItemRef ItemOID="IT.CL.CLORRES" OrderNumber="10" Mandatory="No"  KeySequence="5"  Role="Result Qualifier"/>
<ItemRef ItemOID="IT.CL.CLSTRESC" OrderNumber="11" Mandatory="No"  Role="Result Qualifier"/>
<ItemRef ItemOID="IT.CL.CLLOC" OrderNumber="12" Mandatory="No"  KeySequence="6"  Role="Record Qualifier"/>
<ItemRef ItemOID="IT.CL.CLUSCHFL" OrderNumber="13" Mandatory="No"  Role="Record Qualifier"/>
<ItemRef ItemOID="IT.CL.VISITDY" OrderNumber="14" Mandatory="No"  Role="Timing"/>
<ItemRef ItemOID="IT.CL.CLDTC" OrderNumber="15" Mandatory="No"  KeySequence="7"  Role="Timing"/>
<ItemRef ItemOID="IT.CLDY" OrderNumber="16" Mandatory="No"  Role="Timing"/>
<ItemRef ItemOID="IT.CLNOMDY" OrderNumber="17" Mandatory="No"  Role="Timing"/>
<ItemRef ItemOID="IT.CLNOMLBL" OrderNumber="18" Mandatory="No"  Role="Timing"/>
<ItemRef ItemOID="IT.CL.CLTPT" OrderNumber="19" Mandatory="No"  Role="Timing"/>
<ItemRef ItemOID="IT.CL.CLTPTNUM" OrderNumber="20" Mandatory="No"  KeySequence="9"  Role="Timing"/>
<ItemRef ItemOID="IT.CL.CLELTM" OrderNumber="21" Mandatory="No"  Role="Timing"/>
<ItemRef ItemOID="IT.CL.CLTPTREF" OrderNumber="22" Mandatory="No"  Role="Timing"/>
<ItemRef ItemOID="IT.CL.CLRFTDTC" OrderNumber="23" Mandatory="No"  Role="Timing"/>
<def:leaf ID="Location.CL" xlink:href="cl.xpt">
<def:title>cl.xpt</def:title>
</def:leaf>
</ItemGroupDef>
<ItemGroupDef OID="IG.EG" Domain="EG" Name="EG" Repeating="Yes" IsReferenceData="No" SASDatasetName="EG" Purpose="Tabulation"
  def:Structure="One record per test per ECG reference per observation time per subject"
  def:Class="FINDINGS"
 def:ArchiveLocationID="Location.EG">
<Description> <TranslatedText xml:lang="en">ECG</TranslatedText> </Description>
<ItemRef ItemOID="IT.EG.STUDYID" OrderNumber="1" Mandatory="Yes"  KeySequence="1"  Role="Identifier"/>
<ItemRef ItemOID="IT.EG.DOMAIN" OrderNumber="2" Mandatory="Yes"  Role="Identifier"/>
<ItemRef ItemOID="IT.EG.USUBJID" OrderNumber="3" Mandatory="Yes"  KeySequence="2"  Role="Identifier"/>
<ItemRef ItemOID="IT.EG.EGSEQ" OrderNumber="4" Mandatory="Yes"  Role="Identifier"/>
<ItemRef ItemOID="IT.EG.EGTESTCD" OrderNumber="5" Mandatory="Yes"  KeySequence="3"  Role="Topic"/>
<ItemRef ItemOID="IT.EG.EGTEST" OrderNumber="6" Mandatory="Yes"  Role="Synonym Qualifier"/>
<ItemRef ItemOID="IT.EG.EGCAT" OrderNumber="7" Mandatory="No"  Role="Grouping Qualifier"/>
<ItemRef ItemOID="IT.EG.EGPOS" OrderNumber="8" Mandatory="No"  Role="Record Qualifier"/>
<ItemRef ItemOID="IT.EG.EGORRES" OrderNumber="9" Mandatory="No"  Role="Result Qualifier"/>
<ItemRef ItemOID="IT.EG.EGORRESU" OrderNumber="10" Mandatory="No"  Role="Variable Qualifier"/>
<ItemRef ItemOID="IT.EG.EGSTRESC" OrderNumber="11" Mandatory="No"  Role="Result Qualifier"/>
<ItemRef ItemOID="IT.EG.EGSTRESN" OrderNumber="12" Mandatory="No"  Role="Result Qualifier"/>
<ItemRef ItemOID="IT.EG.EGSTRESU" OrderNumber="13" Mandatory="No"  Role="Variable Qualifier"/>
<ItemRef ItemOID="IT.EG.EGNAM" OrderNumber="14" Mandatory="No"  Role="Record Qualifier"/>
<ItemRef ItemOID="IT.EG.EGMETHOD" OrderNumber="15" Mandatory="No"  Role="Record Qualifier"/>
<ItemRef ItemOID="IT.EG.EGLEAD" OrderNumber="16" Mandatory="No"  Role="Record Qualifier"/>
<ItemRef ItemOID="IT.EG.EGCSTATE" OrderNumber="17" Mandatory="No"  Role="Record Qualifier"/>
<ItemRef ItemOID="IT.EGBLFL" OrderNumber="18" Mandatory="No"  Role="Record Qualifier"/>
<ItemRef ItemOID="IT.EG.EGDTC" OrderNumber="19" Mandatory="No"  KeySequence="4"  Role="Timing"/>
<ItemRef ItemOID="IT.EG.EGENDTC" OrderNumber="20" Mandatory="No"  Role="Timing"/>
<ItemRef ItemOID="IT.EGDY" OrderNumber="21" Mandatory="No"  Role="Timing"/>
<ItemRef ItemOID="IT.EGENDY" OrderNumber="22" Mandatory="No"  Role="Timing"/>
<ItemRef ItemOID="IT.EGNOMDY" OrderNumber="23" Mandatory="No"  Role="Timing"/>
<ItemRef ItemOID="IT.EG.EGTPT" OrderNumber="24" Mandatory="No"  Role="Timing"/>
<ItemRef ItemOID="IT.EG.EGTPTNUM" OrderNumber="25" Mandatory="No"  Role="Timing"/>
<ItemRef ItemOID="IT.EG.EGELTM" OrderNumber="26" Mandatory="No"  Role="Timing"/>
<ItemRef ItemOID="IT.EG.EGTPTREF" OrderNumber="27" Mandatory="No"  Role="Timing"/>
<ItemRef ItemOID="IT.EG.EGRFTDTC" OrderNumber="28" Mandatory="No"  Role="Timing"/>
<ItemRef ItemOID="IT.EG.EGSTINT" OrderNumber="29" Mandatory="No"  Role="Timing"/>
<ItemRef ItemOID="IT.EG.EGENINT" OrderNumber="30" Mandatory="No"  Role="Timing"/>
<def:leaf ID="Location.EG" xlink:href="eg.xpt">
<def:title>eg.xpt</def:title>
</def:leaf>
</ItemGroupDef>
<ItemGroupDef OID="IG.PC" Domain="PC" Name="PC" Repeating="Yes" IsReferenceData="No" SASDatasetName="PC" Purpose="Tabulation"
  def:Structure="One record per test per specimen per observation time per subject or pool"
  def:Class="FINDINGS"
 def:ArchiveLocationID="Location.PC">
<Description> <TranslatedText xml:lang="en">Pharmacokinetics Concentrations</TranslatedText> </Description>
<ItemRef ItemOID="IT.PC.STUDYID" OrderNumber="1" Mandatory="Yes"  KeySequence="1"  Role="Identifier"/>
<ItemRef ItemOID="IT.PC.DOMAIN" OrderNumber="2" Mandatory="Yes"  Role="Identifier"/>
<ItemRef ItemOID="IT.PC.USUBJID" OrderNumber="3" Mandatory="No"  KeySequence="2"  Role="Identifier"/>
<ItemRef ItemOID="IT.PC.PCSEQ" OrderNumber="4" Mandatory="Yes"  Role="Identifier"/>
<ItemRef ItemOID="IT.PC.PCGRPID" OrderNumber="5" Mandatory="No"  Role="Identifier"/>
<ItemRef ItemOID="IT.PC.PCREFID" OrderNumber="6" Mandatory="No"  Role="Identifier"/>
<ItemRef ItemOID="IT.PC.PCTESTCD" OrderNumber="7" Mandatory="Yes"  KeySequence="3"  Role="Topic"/>
<ItemRef ItemOID="IT.PC.PCTEST" OrderNumber="8" Mandatory="Yes"  Role="Synonym Qualifier"/>
<ItemRef ItemOID="IT.PC.PCCAT" OrderNumber="9" Mandatory="No"  Role="Grouping Qualifier"/>
<ItemRef ItemOID="IT.PCORRES" OrderNumber="10" Mandatory="No"  Role="Result Qualifier"/>
<ItemRef ItemOID="IT.PC.PCORRESU" OrderNumber="11" Mandatory="No"  Role="Variable Qualifier"/>
<ItemRef ItemOID="IT.PC.PCSTRESC" OrderNumber="12" Mandatory="No"  Role="Result Qualifier"/>
<ItemRef ItemOID="IT.PC.PCSTRESN" OrderNumber="13" Mandatory="No"  Role="Result Qualifier"/>
<ItemRef ItemOID="IT.PC.PCSTRESU" OrderNumber="14" Mandatory="No"  Role="Variable Qualifier"/>
<ItemRef ItemOID="IT.PC.PCNAM" OrderNumber="15" Mandatory="No"  Role="Record Qualifier"/>
<ItemRef ItemOID="IT.PC.PCSPEC" OrderNumber="16" Mandatory="Yes"  KeySequence="4"  Role="Record Qualifier"/>
<ItemRef ItemOID="IT.PC.PCMETHOD" OrderNumber="17" Mandatory="No"  Role="Record Qualifier"/>
<ItemRef ItemOID="IT.PCBLFL" OrderNumber="18" Mandatory="No"  Role="Record Qualifier"/>
<ItemRef ItemOID="IT.PC.PCLLOQ" OrderNumber="19" Mandatory="No"  Role="Variable Qualifier"/>
<ItemRef ItemOID="IT.PC.VISITDY" OrderNumber="20" Mandatory="No"  Role="Timing"/>
<ItemRef ItemOID="IT.PCDTC" OrderNumber="21" Mandatory="No"  KeySequence="5"  Role="Timing"/>
<ItemRef ItemOID="IT.PCDY" OrderNumber="22" Mandatory="No"  Role="Timing"/>
<ItemRef ItemOID="IT.PCNOMDY" OrderNumber="23" Mandatory="No"  Role="Timing"/>
<ItemRef ItemOID="IT.PC.PCNOMLBL" OrderNumber="24" Mandatory="No"  Role="Timing"/>
<ItemRef ItemOID="IT.PC.PCTPT" OrderNumber="25" Mandatory="No"  Role="Timing"/>
<ItemRef ItemOID="IT.PC.PCTPTNUM" OrderNumber="26" Mandatory="No"  Role="Timing"/>
<ItemRef ItemOID="IT.PC.PCELTM" OrderNumber="27" Mandatory="No"  Role="Timing"/>
<ItemRef ItemOID="IT.PC.PCTPTREF" OrderNumber="28" Mandatory="No"  Role="Timing"/>
<ItemRef ItemOID="IT.PC.PCRFTDTC" OrderNumber="29" Mandatory="No"  Role="Timing"/>
<def:leaf ID="Location.PC" xlink:href="pc.xpt">
<def:title>pc.xpt</def:title>
</def:leaf>
</ItemGroupDef>
<ItemGroupDef OID="IG.TA" Domain="TA" Name="TA" Repeating="No" IsReferenceData="Yes" SASDatasetName="TA" Purpose="Tabulation"
  def:Structure="One record per planned Element per Arm"
  def:Class="TRIAL DESIGN"
 def:ArchiveLocationID="Location.TA">
<Description> <TranslatedText xml:lang="en">Trial Arms</TranslatedText> </Description>
<ItemRef ItemOID="IT.TA.STUDYID" OrderNumber="1" Mandatory="Yes"  KeySequence="1"  Role="Identifier"/>
<ItemRef ItemOID="IT.TA.DOMAIN" OrderNumber="2" Mandatory="Yes"  Role="Identifier"/>
<ItemRef ItemOID="IT.TA.ARMCD" OrderNumber="3" Mandatory="Yes"  KeySequence="2"  Role="Topic"/>
<ItemRef ItemOID="IT.TA.ARM" OrderNumber="4" Mandatory="Yes"  Role="Synonym Qualifier"/>
<ItemRef ItemOID="IT.TA.TAETORD" OrderNumber="5" Mandatory="Yes"  KeySequence="3"  Role="Timing"/>
<ItemRef ItemOID="IT.TA.ETCD" OrderNumber="6" Mandatory="Yes"  Role="Record Qualifier"/>
<ItemRef ItemOID="IT.TA.ELEMENT" OrderNumber="7" Mandatory="No"  Role="Synonym Qualifier"/>
<ItemRef ItemOID="IT.TA.EPOCH" OrderNumber="8" Mandatory="No"  Role="Timing"/>
<def:leaf ID="Location.TA" xlink:href="ta.xpt">
<def:title>ta.xpt</def:title>
</def:leaf>
</ItemGroupDef>
<ItemGroupDef OID="IG.TE" Domain="TE" Name="TE" Repeating="No" IsReferenceData="Yes" SASDatasetName="TE" Purpose="Tabulation"
  def:Structure="One record per planned Element"
  def:Class="TRIAL DESIGN"
 def:ArchiveLocationID="Location.TE">
<Description> <TranslatedText xml:lang="en">Trial Elements</TranslatedText> </Description>
<ItemRef ItemOID="IT.TE.STUDYID" OrderNumber="1" Mandatory="Yes"  KeySequence="1"  Role="Identifier"/>
<ItemRef ItemOID="IT.TE.DOMAIN" OrderNumber="2" Mandatory="Yes"  Role="Identifier"/>
<ItemRef ItemOID="IT.TE.ETCD" OrderNumber="3" Mandatory="Yes"  KeySequence="2"  Role="Topic"/>
<ItemRef ItemOID="IT.TE.ELEMENT" OrderNumber="4" Mandatory="Yes"  Role="Synonym Qualifier"/>
<ItemRef ItemOID="IT.TE.TESTRL" OrderNumber="5" Mandatory="Yes"  Role="Rule"/>
<ItemRef ItemOID="IT.TE.TEENRL" OrderNumber="6" Mandatory="No"  Role="Rule"/>
<def:leaf ID="Location.TE" xlink:href="te.xpt">
<def:title>te.xpt</def:title>
</def:leaf>
</ItemGroupDef>
<ItemGroupDef OID="IG.TX" Domain="TX" Name="TX" Repeating="No" IsReferenceData="Yes" SASDatasetName="TX" Purpose="Tabulation"
  def:Structure="One record per Trial Set parameter per Trial Set"
  def:Class="TRIAL DESIGN"
 def:ArchiveLocationID="Location.TX">
<Description> <TranslatedText xml:lang="en">Trial Sets</TranslatedText> </Description>
<ItemRef ItemOID="IT.TX.STUDYID" OrderNumber="1" Mandatory="Yes"  KeySequence="1"  Role="Identifier"/>
<ItemRef ItemOID="IT.TX.DOMAIN" OrderNumber="2" Mandatory="Yes"  Role="Identifier"/>
<ItemRef ItemOID="IT.TX.SETCD" OrderNumber="3" Mandatory="Yes"  KeySequence="2"  Role="Identifier"/>
<ItemRef ItemOID="IT.TX.SET" OrderNumber="4" Mandatory="Yes"  Role="Synonym Qualifier"/>
<ItemRef ItemOID="IT.TX.TXSEQ" OrderNumber="5" Mandatory="Yes"  Role="Identifier"/>
<ItemRef ItemOID="IT.TX.TXPARMCD" OrderNumber="6" Mandatory="Yes"  KeySequence="3"  Role="Topic"/>
<ItemRef ItemOID="IT.TX.TXPARM" OrderNumber="7" Mandatory="Yes"  Role="Synonym Qualifier"/>
<ItemRef ItemOID="IT.TX.TXVAL" OrderNumber="8" Mandatory="Yes"  Role="Result Qualifier"/>
<def:leaf ID="Location.TX" xlink:href="tx.xpt">
<def:title>tx.xpt</def:title>
</def:leaf>
</ItemGroupDef>
<ItemGroupDef OID="IG.TS" Domain="TS" Name="TS" Repeating="No" IsReferenceData="Yes" SASDatasetName="TS" Purpose="Tabulation"
  def:Structure="One record per Trial Summary parameter value"
  def:Class="TRIAL DESIGN"
 def:ArchiveLocationID="Location.TS">
<Description> <TranslatedText xml:lang="en">Trial Summary</TranslatedText> </Description>
<ItemRef ItemOID="IT.TS.STUDYID" OrderNumber="1" Mandatory="Yes"  KeySequence="1"  Role="Identifier"/>
<ItemRef ItemOID="IT.TS.DOMAIN" OrderNumber="2" Mandatory="Yes"  Role="Identifier"/>
<ItemRef ItemOID="IT.TS.TSSEQ" OrderNumber="3" Mandatory="Yes"  Role="Identifier"/>
<ItemRef ItemOID="IT.TS.TSGRPID" OrderNumber="4" Mandatory="No"  KeySequence="3"  Role="Identifier"/>
<ItemRef ItemOID="IT.TS.TSPARMCD" OrderNumber="5" Mandatory="Yes"  KeySequence="2"  Role="Topic"/>
<ItemRef ItemOID="IT.TS.TSPARM" OrderNumber="6" Mandatory="Yes"  Role="Synonym Qualifier"/>
<ItemRef ItemOID="IT.TS.TSVAL" OrderNumber="7" Mandatory="No"  Role="Result Qualifier"/>
<ItemRef ItemOID="IT.TS.TSVALNF" OrderNumber="8" Mandatory="No"  Role="Record Qualifier"/>
<def:leaf ID="Location.TS" xlink:href="ts.xpt">
<def:title>ts.xpt</def:title>
</def:leaf>
</ItemGroupDef>
<ItemGroupDef OID="IG.SUPPBW" Domain="BW" Name="SUPPBW" Repeating="Yes" IsReferenceData="No" SASDatasetName="SUPPBW" Purpose="Tabulation"
  def:Structure="One record per supplemental qualifier per related parent domain record(s)"
  def:Class="RELATIONSHIP"
 def:ArchiveLocationID="Location.SUPPBW">
<Description> <TranslatedText xml:lang="en">Supplemental Body Weight</TranslatedText> </Description>
<ItemRef ItemOID="IT.SUPPBW.STUDYID" OrderNumber="1" Mandatory="Yes"  KeySequence="1"  Role="Identifier"/>
<ItemRef ItemOID="IT.SUPPBW.RDOMAIN" OrderNumber="2" Mandatory="Yes"  KeySequence="2"  Role="Identifier"/>
<ItemRef ItemOID="IT.SUPPBW.USUBJID" OrderNumber="3" Mandatory="No"  KeySequence="3"  Role="Identifier"/>
<ItemRef ItemOID="IT.SUPPBW.IDVAR" OrderNumber="4" Mandatory="No"  KeySequence="4"  Role="Record Qualifier"/>
<ItemRef ItemOID="IT.SUPPBW.IDVARVAL" OrderNumber="5" Mandatory="No"  KeySequence="5"  Role="Record Qualifier"/>
<ItemRef ItemOID="IT.SUPPBW.QNAM" OrderNumber="6" Mandatory="Yes"  KeySequence="6"  Role="Identifier"/>
<ItemRef ItemOID="IT.SUPPBW.QLABEL" OrderNumber="7" Mandatory="Yes"  Role="Identifier"/>
<ItemRef ItemOID="IT.SUPPBW.QVAL" OrderNumber="8" Mandatory="Yes"  Role="Record Qualifier"/>
<ItemRef ItemOID="IT.SUPPBW.QORIG" OrderNumber="9" Mandatory="No"  Role="Record Qualifier"/>
<def:leaf ID="Location.SUPPBW" xlink:href="suppbw.xpt">
<def:title>suppbw.xpt</def:title>
</def:leaf>
</ItemGroupDef>
<ItemGroupDef OID="IG.SUPPBG" Domain="BG" Name="SUPPBG" Repeating="Yes" IsReferenceData="No" SASDatasetName="SUPPBG" Purpose="Tabulation"
  def:Structure="One record per supplemental qualifier per related parent domain record(s)"
  def:Class="RELATIONSHIP"
 def:ArchiveLocationID="Location.SUPPBG">
<Description> <TranslatedText xml:lang="en">Supplemental Body Weight Gain</TranslatedText> </Description>
<ItemRef ItemOID="IT.SUPPBG.STUDYID" OrderNumber="1" Mandatory="Yes"  KeySequence="1"  Role="Identifier"/>
<ItemRef ItemOID="IT.SUPPBG.RDOMAIN" OrderNumber="2" Mandatory="Yes"  KeySequence="2"  Role="Identifier"/>
<ItemRef ItemOID="IT.SUPPBG.USUBJID" OrderNumber="3" Mandatory="No"  KeySequence="3"  Role="Identifier"/>
<ItemRef ItemOID="IT.SUPPBG.IDVAR" OrderNumber="4" Mandatory="No"  KeySequence="4"  Role="Record Qualifier"/>
<ItemRef ItemOID="IT.SUPPBG.IDVARVAL" OrderNumber="5" Mandatory="No"  KeySequence="5"  Role="Record Qualifier"/>
<ItemRef ItemOID="IT.SUPPBG.QNAM" OrderNumber="6" Mandatory="Yes"  KeySequence="6"  Role="Identifier"/>
<ItemRef ItemOID="IT.SUPPBG.QLABEL" OrderNumber="7" Mandatory="Yes"  Role="Identifier"/>
<ItemRef ItemOID="IT.SUPPBG.QVAL" OrderNumber="8" Mandatory="Yes"  Role="Record Qualifier"/>
<ItemRef ItemOID="IT.SUPPBG.QORIG" OrderNumber="9" Mandatory="No"  Role="Record Qualifier"/>
<def:leaf ID="Location.SUPPBG" xlink:href="suppbg.xpt">
<def:title>suppbg.xpt</def:title>
</def:leaf>
</ItemGroupDef>
<ItemGroupDef OID="IG.SUPPCL" Domain="CL" Name="SUPPCL" Repeating="Yes" IsReferenceData="No" SASDatasetName="SUPPCL" Purpose="Tabulation"
  def:Structure="One record per supplemental qualifier per related parent domain record(s)"
  def:Class="RELATIONSHIP"
 def:ArchiveLocationID="Location.SUPPCL">
<Description> <TranslatedText xml:lang="en">Supplemental Clinical Observations</TranslatedText> </Description>
<ItemRef ItemOID="IT.SUPPCL.STUDYID" OrderNumber="1" Mandatory="Yes"  KeySequence="1"  Role="Identifier"/>
<ItemRef ItemOID="IT.SUPPCL.RDOMAIN" OrderNumber="2" Mandatory="Yes"  KeySequence="2"  Role="Identifier"/>
<ItemRef ItemOID="IT.SUPPCL.USUBJID" OrderNumber="3" Mandatory="No"  KeySequence="3"  Role="Identifier"/>
<ItemRef ItemOID="IT.SUPPCL.IDVAR" OrderNumber="4" Mandatory="No"  KeySequence="4"  Role="Record Qualifier"/>
<ItemRef ItemOID="IT.SUPPCL.IDVARVAL" OrderNumber="5" Mandatory="No"  KeySequence="5"  Role="Record Qualifier"/>
<ItemRef ItemOID="IT.SUPPCL.QNAM" OrderNumber="6" Mandatory="Yes"  KeySequence="6"  Role="Identifier"/>
<ItemRef ItemOID="IT.SUPPCL.QLABEL" OrderNumber="7" Mandatory="Yes"  Role="Identifier"/>
<ItemRef ItemOID="IT.SUPPCL.QVAL" OrderNumber="8" Mandatory="Yes"  Role="Record Qualifier"/>
<ItemRef ItemOID="IT.SUPPCL.QORIG" OrderNumber="9" Mandatory="No"  Role="Record Qualifier"/>
<def:leaf ID="Location.SUPPCL" xlink:href="suppcl.xpt">
<def:title>suppcl.xpt</def:title>
</def:leaf>
</ItemGroupDef>
<ItemGroupDef OID="IG.SUPPDS" Domain="DS" Name="SUPPDS" Repeating="No" IsReferenceData="No" SASDatasetName="SUPPDS" Purpose="Tabulation"
  def:Structure="One record per supplemental qualifier per related parent domain record(s)"
  def:Class="RELATIONSHIP"
 def:ArchiveLocationID="Location.SUPPDS">
<Description> <TranslatedText xml:lang="en">Supplemental Disposition</TranslatedText> </Description>
<ItemRef ItemOID="IT.SUPPDS.STUDYID" OrderNumber="1" Mandatory="Yes"  KeySequence="1"  Role="Identifier"/>
<ItemRef ItemOID="IT.SUPPDS.RDOMAIN" OrderNumber="2" Mandatory="Yes"  KeySequence="2"  Role="Identifier"/>
<ItemRef ItemOID="IT.SUPPDS.USUBJID" OrderNumber="3" Mandatory="No"  KeySequence="3"  Role="Identifier"/>
<ItemRef ItemOID="IT.SUPPDS.IDVAR" OrderNumber="4" Mandatory="No"  KeySequence="4"  Role="Record Qualifier"/>
<ItemRef ItemOID="IT.SUPPDS.IDVARVAL" OrderNumber="5" Mandatory="No"  KeySequence="5"  Role="Record Qualifier"/>
<ItemRef ItemOID="IT.SUPPDS.QNAM" OrderNumber="6" Mandatory="Yes"  KeySequence="6"  Role="Identifier"/>
<ItemRef ItemOID="IT.SUPPDS.QLABEL" OrderNumber="7" Mandatory="Yes"  Role="Identifier"/>
<ItemRef ItemOID="IT.SUPPDS.QVAL" OrderNumber="8" Mandatory="Yes"  Role="Record Qualifier"/>
<ItemRef ItemOID="IT.SUPPDS.QORIG" OrderNumber="9" Mandatory="No"  Role="Record Qualifier"/>
<def:leaf ID="Location.SUPPDS" xlink:href="suppds.xpt">
<def:title>suppds.xpt</def:title>
</def:leaf>
</ItemGroupDef>
<!-- ******************************************** -->
<!-- ItemDef Definitions Section                  -->
<!-- ******************************************** -->
<ItemDef OID="IT.SUPPCL.QVAL.PHSENAME" Name="PHSENAME" DataType="text"  Length="64"  SASFieldName="PHSENAME"><Description> <TranslatedText xml:lang="en">PHSENAME</TranslatedText> </Description>
  <def:Origin Type="OTHER"/>
</ItemDef>
<ItemDef OID="IT.SUPPCL.QVAL.PHASEDAY" Name="PHASEDAY" DataType="integer"  Length="3"  SASFieldName="PHASEDAY"><Description> <TranslatedText xml:lang="en">PHASEDAY</TranslatedText> </Description>
  <def:Origin Type="OTHER"/>
</ItemDef>
<ItemDef OID="IT.TX.TXVAL.SPGRPCD" Name="SPGRPCD" DataType="text"  Length="200"  SASFieldName="SPGRPCD"><Description> <TranslatedText xml:lang="en">SPGRPCD</TranslatedText> </Description>
  <def:Origin Type="OTHER"/>
</ItemDef>
<ItemDef OID="IT.TX.TXVAL.GRPLBL" Name="GRPLBL" DataType="text"  Length="200"  SASFieldName="GRPLBL"><Description> <TranslatedText xml:lang="en">GRPLBL</TranslatedText> </Description>
  <def:Origin Type="OTHER"/>
</ItemDef>
<ItemDef OID="IT.SUPPDS.QVAL.PHSENAME" Name="PHSENAME" DataType="text"  Length="64"  SASFieldName="PHSENAME"><Description> <TranslatedText xml:lang="en">PHSENAME</TranslatedText> </Description>
  <def:Origin Type="OTHER"/>
</ItemDef>
<ItemDef OID="IT.SUPPDS.QVAL.PHASEDAY" Name="PHASEDAY" DataType="integer"  Length="3"  SASFieldName="PHASEDAY"><Description> <TranslatedText xml:lang="en">PHASEDAY</TranslatedText> </Description>
  <def:Origin Type="OTHER"/>
</ItemDef>
<ItemDef OID="IT.SUPPBG.QVAL.PHSNAME2" Name="PHSNAME2" DataType="text"  Length="64"  SASFieldName="PHSNAME2"><Description> <TranslatedText xml:lang="en">PHSNAME2</TranslatedText> </Description>
  <def:Origin Type="OTHER"/>
</ItemDef>
<ItemDef OID="IT.SUPPBG.QVAL.PHSEDAY2" Name="PHSEDAY2" DataType="integer"  Length="3"  SASFieldName="PHSEDAY2"><Description> <TranslatedText xml:lang="en">PHSEDAY2</TranslatedText> </Description>
  <def:Origin Type="OTHER"/>
</ItemDef>
<ItemDef OID="IT.TS.TSVAL.STITLE" Name="STITLE" DataType="text"  Length="200"  SASFieldName="STITLE"><Description> <TranslatedText xml:lang="en">STITLE</TranslatedText> </Description>
  <def:Origin Type="OTHER"/>
</ItemDef>
<ItemDef OID="IT.TS.TSVAL.TRT" Name="TRT" DataType="text"  Length="200"  SASFieldName="TRT"><Description> <TranslatedText xml:lang="en">TRT</TranslatedText> </Description>
  <def:Origin Type="OTHER"/>
</ItemDef>
<ItemDef OID="IT.TS.TSVAL.AGEU" Name="AGEU" DataType="text"  Length="200"  SASFieldName="AGEU"><Description> <TranslatedText xml:lang="en">AGEU</TranslatedText> </Description>
  <CodeListRef CodeListOID="AGEU"/>
  <def:Origin Type="OTHER"/>
</ItemDef>
<ItemDef OID="IT.TS.TSVAL.SDESIGN" Name="SDESIGN" DataType="text"  Length="200"  SASFieldName="SDESIGN"><Description> <TranslatedText xml:lang="en">SDESIGN</TranslatedText> </Description>
  <CodeListRef CodeListOID="DESIGN"/>
  <def:Origin Type="OTHER"/>
</ItemDef>
<ItemDef OID="IT.TS.TSVAL.ROUTE" Name="ROUTE" DataType="text"  Length="200"  SASFieldName="ROUTE"><Description> <TranslatedText xml:lang="en">ROUTE</TranslatedText> </Description>
  <CodeListRef CodeListOID="ROUTE"/>
  <def:Origin Type="OTHER"/>
</ItemDef>
<ItemDef OID="IT.TS.TSVAL.SNDIGVER" Name="SNDIGVER" DataType="text"  Length="200"  SASFieldName="SNDIGVER"><Description> <TranslatedText xml:lang="en">SNDIGVER</TranslatedText> </Description>
  <CodeListRef CodeListOID="SNDIGVER"/>
  <def:Origin Type="OTHER"/>
</ItemDef>
<ItemDef OID="IT.TS.TSVAL.SPECIES" Name="SPECIES" DataType="text"  Length="200"  SASFieldName="SPECIES"><Description> <TranslatedText xml:lang="en">SPECIES</TranslatedText> </Description>
  <CodeListRef CodeListOID="SPECIES"/>
  <def:Origin Type="OTHER"/>
</ItemDef>
<ItemDef OID="IT.TS.TSVAL.SSTYP" Name="SSTYP" DataType="text"  Length="200"  SASFieldName="SSTYP"><Description> <TranslatedText xml:lang="en">SSTYP</TranslatedText> </Description>
  <CodeListRef CodeListOID="SSTYP"/>
  <def:Origin Type="OTHER"/>
</ItemDef>
<ItemDef OID="IT.TS.TSVAL.STCAT" Name="STCAT" DataType="text"  Length="200"  SASFieldName="STCAT"><Description> <TranslatedText xml:lang="en">STCAT</TranslatedText> </Description>
  <CodeListRef CodeListOID="STCAT"/>
  <def:Origin Type="OTHER"/>
</ItemDef>
<ItemDef OID="IT.TS.TSVAL.STRAIN" Name="STRAIN" DataType="text"  Length="200"  SASFieldName="STRAIN"><Description> <TranslatedText xml:lang="en">STRAIN</TranslatedText> </Description>
  <CodeListRef CodeListOID="STRAIN"/>
  <def:Origin Type="OTHER"/>
</ItemDef>
<ItemDef OID="IT.TS.TSVAL.TFCNTRY" Name="TFCNTRY" DataType="text"  Length="200"  SASFieldName="TFCNTRY"><Description> <TranslatedText xml:lang="en">TFCNTRY</TranslatedText> </Description>
  <CodeListRef CodeListOID="COUNTRY"/>
  <def:Origin Type="OTHER"/>
</ItemDef>
<ItemDef OID="IT.TS.TSVAL.SEXPOP" Name="SEXPOP" DataType="text"  Length="200"  SASFieldName="SEXPOP"><Description> <TranslatedText xml:lang="en">SEXPOP</TranslatedText> </Description>
  <CodeListRef CodeListOID="SEXPOP"/>
  <def:Origin Type="OTHER"/>
</ItemDef>
<ItemDef OID="IT.TS.TSVAL.GLPFL" Name="GLPFL" DataType="text"  Length="200"  SASFieldName="GLPFL"><Description> <TranslatedText xml:lang="en">GLPFL</TranslatedText> </Description>
  <CodeListRef CodeListOID="NY"/>
  <def:Origin Type="OTHER"/>
</ItemDef>
<ItemDef OID="IT.SUPPBW.QVAL.PHSENAME" Name="PHSENAME" DataType="text"  Length="64"  SASFieldName="PHSENAME"><Description> <TranslatedText xml:lang="en">PHSENAME</TranslatedText> </Description>
  <def:Origin Type="OTHER"/>
</ItemDef>
<ItemDef OID="IT.SUPPBW.QVAL.PHASEDAY" Name="PHASEDAY" DataType="integer"  Length="3"  SASFieldName="PHASEDAY"><Description> <TranslatedText xml:lang="en">PHASEDAY</TranslatedText> </Description>
  <def:Origin Type="OTHER"/>
</ItemDef>
<ItemDef OID="IT.CO.STUDYID" Name="STUDYID" DataType="text"  Length="7"  SASFieldName="STUDYID"><Description> <TranslatedText xml:lang="en">Study Identifier</TranslatedText> </Description>
  <def:Origin Type="OTHER"/>
</ItemDef>
<ItemDef OID="IT.CO.DOMAIN" Name="DOMAIN" DataType="text"  Length="2"  SASFieldName="DOMAIN"><Description> <TranslatedText xml:lang="en">Domain Abbreviation</TranslatedText> </Description>
  <CodeListRef CodeListOID="SDOMAIN"/>
  <def:Origin Type="OTHER"/>
</ItemDef>
<ItemDef OID="IT.CO.RDOMAIN" Name="RDOMAIN" DataType="text"  Length="2"  SASFieldName="RDOMAIN"><Description> <TranslatedText xml:lang="en">Related Domain Abbreviation</TranslatedText> </Description>
  <CodeListRef CodeListOID="SDOMAIN"/>
  <def:Origin Type="OTHER"/>
</ItemDef>
<ItemDef OID="IT.CO.USUBJID" Name="USUBJID" DataType="text"  Length="13"  SASFieldName="USUBJID"><Description> <TranslatedText xml:lang="en">Unique Subject Identifier</TranslatedText> </Description>
  <def:Origin Type="OTHER"/>
</ItemDef>
<ItemDef OID="IT.CO.COSEQ" Name="COSEQ" DataType="integer"  Length="8"  SASFieldName="COSEQ"><Description> <TranslatedText xml:lang="en">Sequence Number</TranslatedText> </Description>
  <def:Origin Type="OTHER"/>
</ItemDef>
<ItemDef OID="IT.CO.IDVAR" Name="IDVAR" DataType="text"  Length="5"  SASFieldName="IDVAR"><Description> <TranslatedText xml:lang="en">Identifying Variable</TranslatedText> </Description>
  <def:Origin Type="OTHER"/>
</ItemDef>
<ItemDef OID="IT.CO.IDVARVAL" Name="IDVARVAL" DataType="text"  Length="2"  SASFieldName="IDVARVAL"><Description> <TranslatedText xml:lang="en">Identifying Variable Value</TranslatedText> </Description>
  <def:Origin Type="OTHER"/>
</ItemDef>
<ItemDef OID="IT.CO.COVAL" Name="COVAL" DataType="text"  Length="195"  SASFieldName="COVAL"><Description> <TranslatedText xml:lang="en">Comment</TranslatedText> </Description>
  <def:Origin Type="COLLECTED"/>
</ItemDef>
<ItemDef OID="IT.CO.COVAL1" Name="COVAL1" DataType="text"  Length="133"  SASFieldName="COVAL1"><Description> <TranslatedText xml:lang="en">Comment1</TranslatedText> </Description>
  <def:Origin Type="COLLECTED"/>
</ItemDef>
<ItemDef OID="IT.CODTC" Name="CODTC" DataType="datetime"  def:CommentOID="COM.CODTC" SASFieldName="CODTC"><Description> <TranslatedText xml:lang="en">Date/Time of Comment</TranslatedText> </Description>
  <def:Origin Type="COLLECTED"/>
</ItemDef>
<ItemDef OID="IT.DM.STUDYID" Name="STUDYID" DataType="text"  Length="7"  SASFieldName="STUDYID"><Description> <TranslatedText xml:lang="en">Study Identifier</TranslatedText> </Description>
  <def:Origin Type="OTHER"/>
</ItemDef>
<ItemDef OID="IT.DM.DOMAIN" Name="DOMAIN" DataType="text"  Length="2"  SASFieldName="DOMAIN"><Description> <TranslatedText xml:lang="en">Domain Abbreviation</TranslatedText> </Description>
  <CodeListRef CodeListOID="SDOMAIN"/>
  <def:Origin Type="OTHER"/>
</ItemDef>
<ItemDef OID="IT.DM.USUBJID" Name="USUBJID" DataType="text"  Length="13"  SASFieldName="USUBJID"><Description> <TranslatedText xml:lang="en">Unique Subject Identifier</TranslatedText> </Description>
  <def:Origin Type="OTHER"/>
</ItemDef>
<ItemDef OID="IT.DM.SUBJID" Name="SUBJID" DataType="text"  Length="5"  SASFieldName="SUBJID"><Description> <TranslatedText xml:lang="en">Subject Identifier for the Study</TranslatedText> </Description>
  <def:Origin Type="OTHER"/>
</ItemDef>
<ItemDef OID="IT.RFSTDTC" Name="RFSTDTC" DataType="datetime"  def:CommentOID="COM.RFSTDTC" SASFieldName="RFSTDTC"><Description> <TranslatedText xml:lang="en">Subject Reference Start Date/Time</TranslatedText> </Description>
  <def:Origin Type="COLLECTED"/>
</ItemDef>
<ItemDef OID="IT.RFENDTC" Name="RFENDTC" DataType="datetime"  def:CommentOID="COM.RFENDTC" SASFieldName="RFENDTC"><Description> <TranslatedText xml:lang="en">Subject Reference End Date/Time</TranslatedText> </Description>
  <def:Origin Type="COLLECTED"/>
</ItemDef>
<ItemDef OID="IT.DM.RFXSTDTC" Name="RFXSTDTC" DataType="datetime"  SASFieldName="RFXSTDTC"><Description> <TranslatedText xml:lang="en">Date/Time of First Study Treatment</TranslatedText> </Description>
  <def:Origin Type="COLLECTED"/>
</ItemDef>
<ItemDef OID="IT.DM.RFXENDTC" Name="RFXENDTC" DataType="datetime"  SASFieldName="RFXENDTC"><Description> <TranslatedText xml:lang="en">Date/Time of Last Study Treatment</TranslatedText> </Description>
  <def:Origin Type="COLLECTED"/>
</ItemDef>
<ItemDef OID="IT.DM.BRTHDTC" Name="BRTHDTC" DataType="datetime"  SASFieldName="BRTHDTC"><Description> <TranslatedText xml:lang="en">Date/Time of Birth</TranslatedText> </Description>
  <def:Origin Type="COLLECTED"/>
</ItemDef>
<ItemDef OID="IT.AGE" Name="AGE" DataType="integer"  Length="8"  def:CommentOID="COM.AGE" SASFieldName="AGE"><Description> <TranslatedText xml:lang="en">Age</TranslatedText> </Description>
  <def:Origin Type="DERIVED"/>
</ItemDef>
<ItemDef OID="IT.DM.AGEU" Name="AGEU" DataType="text"  Length="5"  SASFieldName="AGEU"><Description> <TranslatedText xml:lang="en">Age Unit</TranslatedText> </Description>
  <CodeListRef CodeListOID="AGEU"/>
  <def:Origin Type="OTHER"/>
</ItemDef>
<ItemDef OID="IT.DM.SEX" Name="SEX" DataType="text"  Length="1"  SASFieldName="SEX"><Description> <TranslatedText xml:lang="en">Sex</TranslatedText> </Description>
  <CodeListRef CodeListOID="SEX"/>
  <def:Origin Type="OTHER"/>
</ItemDef>
<ItemDef OID="IT.DM.ARMCD" Name="ARMCD" DataType="text"  Length="1"  SASFieldName="ARMCD"><Description> <TranslatedText xml:lang="en">Planned Arm Code</TranslatedText> </Description>
  <def:Origin Type="OTHER"/>
</ItemDef>
<ItemDef OID="IT.DM.ARM" Name="ARM" DataType="text"  Length="11"  SASFieldName="ARM"><Description> <TranslatedText xml:lang="en">Description of Planned Arm</TranslatedText> </Description>
  <def:Origin Type="OTHER"/>
</ItemDef>
<ItemDef OID="IT.DM.SETCD" Name="SETCD" DataType="text"  Length="1"  SASFieldName="SETCD"><Description> <TranslatedText xml:lang="en">Set Code</TranslatedText> </Description>
  <def:Origin Type="OTHER"/>
</ItemDef>
<ItemDef OID="IT.SE.STUDYID" Name="STUDYID" DataType="text"  Length="7"  SASFieldName="STUDYID"><Description> <TranslatedText xml:lang="en">Study Identifier</TranslatedText> </Description>
  <def:Origin Type="OTHER"/>
</ItemDef>
<ItemDef OID="IT.SE.DOMAIN" Name="DOMAIN" DataType="text"  Length="2"  SASFieldName="DOMAIN"><Description> <TranslatedText xml:lang="en">Domain Abbreviation</TranslatedText> </Description>
  <CodeListRef CodeListOID="SDOMAIN"/>
  <def:Origin Type="OTHER"/>
</ItemDef>
<ItemDef OID="IT.SE.USUBJID" Name="USUBJID" DataType="text"  Length="13"  SASFieldName="USUBJID"><Description> <TranslatedText xml:lang="en">Unique Subject Identifier</TranslatedText> </Description>
  <def:Origin Type="OTHER"/>
</ItemDef>
<ItemDef OID="IT.SE.SESEQ" Name="SESEQ" DataType="integer"  Length="8"  SASFieldName="SESEQ"><Description> <TranslatedText xml:lang="en">Sequence Number</TranslatedText> </Description>
  <def:Origin Type="OTHER"/>
</ItemDef>
<ItemDef OID="IT.SE.ETCD" Name="ETCD" DataType="text"  Length="5"  SASFieldName="ETCD"><Description> <TranslatedText xml:lang="en">Element Code</TranslatedText> </Description>
  <def:Origin Type="OTHER"/>
</ItemDef>
<ItemDef OID="IT.SE.ELEMENT" Name="ELEMENT" DataType="text"  Length="9"  SASFieldName="ELEMENT"><Description> <TranslatedText xml:lang="en">Description of Element</TranslatedText> </Description>
  <def:Origin Type="OTHER"/>
</ItemDef>
<ItemDef OID="IT.SE.SESTDTC" Name="SESTDTC" DataType="datetime"  SASFieldName="SESTDTC"><Description> <TranslatedText xml:lang="en">Start Date/Time of Element</TranslatedText> </Description>
  <def:Origin Type="COLLECTED"/>
</ItemDef>
<ItemDef OID="IT.SE.SEENDTC" Name="SEENDTC" DataType="datetime"  SASFieldName="SEENDTC"><Description> <TranslatedText xml:lang="en">End Date/Time of Element</TranslatedText> </Description>
  <def:Origin Type="COLLECTED"/>
</ItemDef>
<ItemDef OID="IT.EX.STUDYID" Name="STUDYID" DataType="text"  Length="7"  SASFieldName="STUDYID"><Description> <TranslatedText xml:lang="en">Study Identifier</TranslatedText> </Description>
  <def:Origin Type="OTHER"/>
</ItemDef>
<ItemDef OID="IT.EX.DOMAIN" Name="DOMAIN" DataType="text"  Length="2"  SASFieldName="DOMAIN"><Description> <TranslatedText xml:lang="en">Domain Abbreviation</TranslatedText> </Description>
  <CodeListRef CodeListOID="SDOMAIN"/>
  <def:Origin Type="OTHER"/>
</ItemDef>
<ItemDef OID="IT.EX.USUBJID" Name="USUBJID" DataType="text"  Length="13"  SASFieldName="USUBJID"><Description> <TranslatedText xml:lang="en">Unique Subject Identifier</TranslatedText> </Description>
  <def:Origin Type="OTHER"/>
</ItemDef>
<ItemDef OID="IT.EX.EXSEQ" Name="EXSEQ" DataType="integer"  Length="8"  SASFieldName="EXSEQ"><Description> <TranslatedText xml:lang="en">Sequence Number</TranslatedText> </Description>
  <def:Origin Type="OTHER"/>
</ItemDef>
<ItemDef OID="IT.EX.EXTRT" Name="EXTRT" DataType="text"  Length="9"  SASFieldName="EXTRT"><Description> <TranslatedText xml:lang="en">Name of Actual Treatment</TranslatedText> </Description>
  <def:Origin Type="OTHER"/>
</ItemDef>
<ItemDef OID="IT.EXDOSE" Name="EXDOSE" DataType="float"  Length="8"  SignificantDigits="0"  def:CommentOID="COM.EXDOSE" SASFieldName="EXDOSE"><Description> <TranslatedText xml:lang="en">Dose per Administration</TranslatedText> </Description>
  <def:Origin Type="COLLECTED"/>
</ItemDef>
<ItemDef OID="IT.EX.EXDOSU" Name="EXDOSU" DataType="text"  Length="5"  SASFieldName="EXDOSU"><Description> <TranslatedText xml:lang="en">Dose Units</TranslatedText> </Description>
  <CodeListRef CodeListOID="UNIT"/>
  <def:Origin Type="COLLECTED"/>
</ItemDef>
<ItemDef OID="IT.EX.EXDOSFRM" Name="EXDOSFRM" DataType="text"  Length="10"  SASFieldName="EXDOSFRM"><Description> <TranslatedText xml:lang="en">Dose Form</TranslatedText> </Description>
  <CodeListRef CodeListOID="FRM"/>
  <def:Origin Type="OTHER"/>
</ItemDef>
<ItemDef OID="IT.EX.EXDOSFRQ" Name="EXDOSFRQ" DataType="text"  Length="4"  SASFieldName="EXDOSFRQ"><Description> <TranslatedText xml:lang="en">Dosing Frequency Per Interval</TranslatedText> </Description>
  <CodeListRef CodeListOID="FREQ"/>
  <def:Origin Type="OTHER"/>
</ItemDef>
<ItemDef OID="IT.EX.EXROUTE" Name="EXROUTE" DataType="text"  Length="11"  SASFieldName="EXROUTE"><Description> <TranslatedText xml:lang="en">Route of Administration</TranslatedText> </Description>
  <CodeListRef CodeListOID="ROUTE"/>
  <def:Origin Type="OTHER"/>
</ItemDef>
<ItemDef OID="IT.EX.EXLOT" Name="EXLOT" DataType="text"  Length="19"  SASFieldName="EXLOT"><Description> <TranslatedText xml:lang="en">Lot Number</TranslatedText> </Description>
  <def:Origin Type="OTHER"/>
</ItemDef>
<ItemDef OID="IT.EX.EXTRTV" Name="EXTRTV" DataType="text"  Length="128"  SASFieldName="EXTRTV"><Description> <TranslatedText xml:lang="en">Treatment Vehicle</TranslatedText> </Description>
  <def:Origin Type="OTHER"/>
</ItemDef>
<ItemDef OID="IT.EX.EXVAMT" Name="EXVAMT" DataType="float"  Length="8"  SignificantDigits="0"  SASFieldName="EXVAMT"><Description> <TranslatedText xml:lang="en">Amount Administered</TranslatedText> </Description>
  <def:Origin Type="COLLECTED"/>
</ItemDef>
<ItemDef OID="IT.EX.EXVAMTU" Name="EXVAMTU" DataType="text"  Length="2"  SASFieldName="EXVAMTU"><Description> <TranslatedText xml:lang="en">Amount Administered Units</TranslatedText> </Description>
  <CodeListRef CodeListOID="UNIT"/>
  <def:Origin Type="COLLECTED"/>
</ItemDef>
<ItemDef OID="IT.EX.EXSTDTC" Name="EXSTDTC" DataType="datetime"  SASFieldName="EXSTDTC"><Description> <TranslatedText xml:lang="en">Start Date/Time of Treatment</TranslatedText> </Description>
  <def:Origin Type="COLLECTED"/>
</ItemDef>
<ItemDef OID="IT.EXSTDY" Name="EXSTDY" DataType="integer"  Length="8"  def:CommentOID="COM.EXSTDY" SASFieldName="EXSTDY"><Description> <TranslatedText xml:lang="en">Study Day of Start of Treatment</TranslatedText> </Description>
  <def:Origin Type="DERIVED"/>
</ItemDef>
<ItemDef OID="IT.EX.EXTPT" Name="EXTPT" DataType="text"  Length="6"  SASFieldName="EXTPT"><Description> <TranslatedText xml:lang="en">Planned Time Point Name</TranslatedText> </Description>
  <def:Origin Type="OTHER"/>
</ItemDef>
<ItemDef OID="IT.EX.EXTPTNUM" Name="EXTPTNUM" DataType="integer"  Length="8"  SASFieldName="EXTPTNUM"><Description> <TranslatedText xml:lang="en">Planned Time Point Number</TranslatedText> </Description>
  <def:Origin Type="OTHER"/>
</ItemDef>
<ItemDef OID="IT.DS.STUDYID" Name="STUDYID" DataType="text"  Length="7"  SASFieldName="STUDYID"><Description> <TranslatedText xml:lang="en">Study Identifier</TranslatedText> </Description>
  <def:Origin Type="OTHER"/>
</ItemDef>
<ItemDef OID="IT.DS.DOMAIN" Name="DOMAIN" DataType="text"  Length="2"  SASFieldName="DOMAIN"><Description> <TranslatedText xml:lang="en">Domain Abbreviation</TranslatedText> </Description>
  <CodeListRef CodeListOID="SDOMAIN"/>
  <def:Origin Type="OTHER"/>
</ItemDef>
<ItemDef OID="IT.DS.USUBJID" Name="USUBJID" DataType="text"  Length="13"  SASFieldName="USUBJID"><Description> <TranslatedText xml:lang="en">Unique Subject Identifier</TranslatedText> </Description>
  <def:Origin Type="OTHER"/>
</ItemDef>
<ItemDef OID="IT.DS.DSSEQ" Name="DSSEQ" DataType="integer"  Length="8"  SASFieldName="DSSEQ"><Description> <TranslatedText xml:lang="en">Sequence Number</TranslatedText> </Description>
  <def:Origin Type="OTHER"/>
</ItemDef>
<ItemDef OID="IT.DS.DSTERM" Name="DSTERM" DataType="text"  Length="9"  SASFieldName="DSTERM"><Description> <TranslatedText xml:lang="en">Reported Term for the Disposition Event</TranslatedText> </Description>
  <def:Origin Type="COLLECTED"/>
</ItemDef>
<ItemDef OID="IT.DS.DSDECOD" Name="DSDECOD" DataType="text"  Length="24"  SASFieldName="DSDECOD"><Description> <TranslatedText xml:lang="en">Standardized Disposition Term</TranslatedText> </Description>
  <CodeListRef CodeListOID="DSDECOD"/>
  <def:Origin Type="COLLECTED"/>
</ItemDef>
<ItemDef OID="IT.DS.DSUSCHFL" Name="DSUSCHFL" DataType="text"  Length="1"  SASFieldName="DSUSCHFL"><Description> <TranslatedText xml:lang="en">Unscheduled Flag</TranslatedText> </Description>
  <CodeListRef CodeListOID="NY"/>
  <def:Origin Type="OTHER"/>
</ItemDef>
<ItemDef OID="IT.DS.VISITDY" Name="VISITDY" DataType="integer"  Length="8"  def:CommentOID="COM.DS.VISITDY" SASFieldName="VISITDY"><Description> <TranslatedText xml:lang="en">Planned Study Day of Disposition</TranslatedText> </Description>
  <def:Origin Type="DERIVED"/>
</ItemDef>
<ItemDef OID="IT.DS.DSSTDTC" Name="DSSTDTC" DataType="datetime"  SASFieldName="DSSTDTC"><Description> <TranslatedText xml:lang="en">Date/Time of Disposition</TranslatedText> </Description>
  <def:Origin Type="COLLECTED"/>
</ItemDef>
<ItemDef OID="IT.DSSTDY" Name="DSSTDY" DataType="integer"  Length="8"  def:CommentOID="COM.DSSTDY" SASFieldName="DSSTDY"><Description> <TranslatedText xml:lang="en">Study Day of Disposition</TranslatedText> </Description>
  <def:Origin Type="DERIVED"/>
</ItemDef>
<ItemDef OID="IT.DSNOMDY" Name="DSNOMDY" DataType="integer"  Length="8"  def:CommentOID="COM.DSNOMDY" SASFieldName="DSNOMDY"><Description> <TranslatedText xml:lang="en">Nominal Study Day for Tabulations</TranslatedText> </Description>
  <def:Origin Type="DERIVED"/>
</ItemDef>
<ItemDef OID="IT.BW.STUDYID" Name="STUDYID" DataType="text"  Length="7"  SASFieldName="STUDYID"><Description> <TranslatedText xml:lang="en">Study Identifier</TranslatedText> </Description>
  <def:Origin Type="OTHER"/>
</ItemDef>
<ItemDef OID="IT.BW.DOMAIN" Name="DOMAIN" DataType="text"  Length="2"  SASFieldName="DOMAIN"><Description> <TranslatedText xml:lang="en">Domain Abbreviation</TranslatedText> </Description>
  <CodeListRef CodeListOID="SDOMAIN"/>
  <def:Origin Type="OTHER"/>
</ItemDef>
<ItemDef OID="IT.BW.USUBJID" Name="USUBJID" DataType="text"  Length="13"  SASFieldName="USUBJID"><Description> <TranslatedText xml:lang="en">Unique Subject Identifier</TranslatedText> </Description>
  <def:Origin Type="OTHER"/>
</ItemDef>
<ItemDef OID="IT.BW.BWSEQ" Name="BWSEQ" DataType="integer"  Length="8"  SASFieldName="BWSEQ"><Description> <TranslatedText xml:lang="en">Sequence Number</TranslatedText> </Description>
  <def:Origin Type="OTHER"/>
</ItemDef>
<ItemDef OID="IT.BW.BWTESTCD" Name="BWTESTCD" DataType="text"  Length="2"  SASFieldName="BWTESTCD"><Description> <TranslatedText xml:lang="en">Test Short Name</TranslatedText> </Description>
  <CodeListRef CodeListOID="BWTESTCD"/>
  <def:Origin Type="OTHER"/>
</ItemDef>
<ItemDef OID="IT.BW.BWTEST" Name="BWTEST" DataType="text"  Length="11"  SASFieldName="BWTEST"><Description> <TranslatedText xml:lang="en">Test Name</TranslatedText> </Description>
  <CodeListRef CodeListOID="BWTEST"/>
  <def:Origin Type="OTHER"/>
</ItemDef>
<ItemDef OID="IT.BW.BWORRES" Name="BWORRES" DataType="text"  Length="4"  SASFieldName="BWORRES"><Description> <TranslatedText xml:lang="en">Result or Findings as Collected</TranslatedText> </Description>
  <def:Origin Type="COLLECTED"/>
</ItemDef>
<ItemDef OID="IT.BW.BWORRESU" Name="BWORRESU" DataType="text"  Length="2"  SASFieldName="BWORRESU"><Description> <TranslatedText xml:lang="en">Unit of the Original Result</TranslatedText> </Description>
  <CodeListRef CodeListOID="UNIT"/>
  <def:Origin Type="COLLECTED"/>
</ItemDef>
<ItemDef OID="IT.BW.BWSTRESC" Name="BWSTRESC" DataType="text"  Length="4"  SASFieldName="BWSTRESC"><Description> <TranslatedText xml:lang="en">Standardized Result in Character Format</TranslatedText> </Description>
  <def:Origin Type="COLLECTED"/>
</ItemDef>
<ItemDef OID="IT.BW.BWSTRESN" Name="BWSTRESN" DataType="float"  Length="8"  SignificantDigits="1"  SASFieldName="BWSTRESN"><Description> <TranslatedText xml:lang="en">Standardized Result in Numeric Format</TranslatedText> </Description>
  <def:Origin Type="COLLECTED"/>
</ItemDef>
<ItemDef OID="IT.BW.BWSTRESU" Name="BWSTRESU" DataType="text"  Length="2"  SASFieldName="BWSTRESU"><Description> <TranslatedText xml:lang="en">Unit of the Standardized Result</TranslatedText> </Description>
  <CodeListRef CodeListOID="UNIT"/>
  <def:Origin Type="COLLECTED"/>
</ItemDef>
<ItemDef OID="IT.BWBLFL" Name="BWBLFL" DataType="text"  Length="1"  def:CommentOID="COM.BWBLFL" SASFieldName="BWBLFL"><Description> <TranslatedText xml:lang="en">Baseline Flag</TranslatedText> </Description>
  <CodeListRef CodeListOID="NY"/>
  <def:Origin Type="OTHER"/>
</ItemDef>
<ItemDef OID="IT.BW.VISITDY" Name="VISITDY" DataType="integer"  Length="8"  def:CommentOID="COM.BW.VISITDY" SASFieldName="VISITDY"><Description> <TranslatedText xml:lang="en">Planned Study Day of Collection</TranslatedText> </Description>
  <def:Origin Type="DERIVED"/>
</ItemDef>
<ItemDef OID="IT.BW.BWDTC" Name="BWDTC" DataType="datetime"  SASFieldName="BWDTC"><Description> <TranslatedText xml:lang="en">Date/Time Animal Weighed</TranslatedText> </Description>
  <def:Origin Type="COLLECTED"/>
</ItemDef>
<ItemDef OID="IT.BWDY" Name="BWDY" DataType="integer"  Length="8"  def:CommentOID="COM.BWDY" SASFieldName="BWDY"><Description> <TranslatedText xml:lang="en">Study Day Animal Weighed</TranslatedText> </Description>
  <def:Origin Type="DERIVED"/>
</ItemDef>
<ItemDef OID="IT.BWNOMDY" Name="BWNOMDY" DataType="integer"  Length="8"  def:CommentOID="COM.BWNOMDY" SASFieldName="BWNOMDY"><Description> <TranslatedText xml:lang="en">Nominal Study Day for Tabulations</TranslatedText> </Description>
  <def:Origin Type="DERIVED"/>
</ItemDef>
<ItemDef OID="IT.BWNOMLBL" Name="BWNOMLBL" DataType="text"  Length="14"  def:CommentOID="COM.BWNOMLBL" SASFieldName="BWNOMLBL"><Description> <TranslatedText xml:lang="en">Label for Nominal Study Day</TranslatedText> </Description>
  <def:Origin Type="DERIVED"/>
</ItemDef>
<ItemDef OID="IT.BG.STUDYID" Name="STUDYID" DataType="text"  Length="7"  SASFieldName="STUDYID"><Description> <TranslatedText xml:lang="en">Study Identifier</TranslatedText> </Description>
  <def:Origin Type="OTHER"/>
</ItemDef>
<ItemDef OID="IT.BG.DOMAIN" Name="DOMAIN" DataType="text"  Length="2"  SASFieldName="DOMAIN"><Description> <TranslatedText xml:lang="en">Domain Abbreviation</TranslatedText> </Description>
  <CodeListRef CodeListOID="SDOMAIN"/>
  <def:Origin Type="OTHER"/>
</ItemDef>
<ItemDef OID="IT.BG.USUBJID" Name="USUBJID" DataType="text"  Length="13"  SASFieldName="USUBJID"><Description> <TranslatedText xml:lang="en">Unique Subject Identifier</TranslatedText> </Description>
  <def:Origin Type="OTHER"/>
</ItemDef>
<ItemDef OID="IT.BG.BGSEQ" Name="BGSEQ" DataType="integer"  Length="8"  SASFieldName="BGSEQ"><Description> <TranslatedText xml:lang="en">Sequence Number</TranslatedText> </Description>
  <def:Origin Type="OTHER"/>
</ItemDef>
<ItemDef OID="IT.BG.BGTESTCD" Name="BGTESTCD" DataType="text"  Length="6"  SASFieldName="BGTESTCD"><Description> <TranslatedText xml:lang="en">Test Short Name</TranslatedText> </Description>
  <CodeListRef CodeListOID="BGTESTCD"/>
  <def:Origin Type="OTHER"/>
</ItemDef>
<ItemDef OID="IT.BG.BGTEST" Name="BGTEST" DataType="text"  Length="16"  SASFieldName="BGTEST"><Description> <TranslatedText xml:lang="en">Test Name</TranslatedText> </Description>
  <CodeListRef CodeListOID="BGTEST"/>
  <def:Origin Type="OTHER"/>
</ItemDef>
<ItemDef OID="IT.BG.BGORRES" Name="BGORRES" DataType="text"  Length="4"  SASFieldName="BGORRES"><Description> <TranslatedText xml:lang="en">Result or Findings as Collected</TranslatedText> </Description>
  <def:Origin Type="COLLECTED"/>
</ItemDef>
<ItemDef OID="IT.BG.BGORRESU" Name="BGORRESU" DataType="text"  Length="2"  SASFieldName="BGORRESU"><Description> <TranslatedText xml:lang="en">Unit of the Original Result</TranslatedText> </Description>
  <CodeListRef CodeListOID="UNIT"/>
  <def:Origin Type="COLLECTED"/>
</ItemDef>
<ItemDef OID="IT.BG.BGSTRESC" Name="BGSTRESC" DataType="text"  Length="4"  SASFieldName="BGSTRESC"><Description> <TranslatedText xml:lang="en">Standardized Result in Character Format</TranslatedText> </Description>
  <def:Origin Type="COLLECTED"/>
</ItemDef>
<ItemDef OID="IT.BG.BGSTRESN" Name="BGSTRESN" DataType="float"  Length="8"  SignificantDigits="1"  SASFieldName="BGSTRESN"><Description> <TranslatedText xml:lang="en">Standardized Result in Numeric Format</TranslatedText> </Description>
  <def:Origin Type="COLLECTED"/>
</ItemDef>
<ItemDef OID="IT.BG.BGSTRESU" Name="BGSTRESU" DataType="text"  Length="2"  SASFieldName="BGSTRESU"><Description> <TranslatedText xml:lang="en">Unit of the Standardized Result</TranslatedText> </Description>
  <CodeListRef CodeListOID="UNIT"/>
  <def:Origin Type="COLLECTED"/>
</ItemDef>
<ItemDef OID="IT.BG.BGDTC" Name="BGDTC" DataType="datetime"  SASFieldName="BGDTC"><Description> <TranslatedText xml:lang="en">Date/Time Animal Weighed</TranslatedText> </Description>
  <def:Origin Type="COLLECTED"/>
</ItemDef>
<ItemDef OID="IT.BG.BGENDTC" Name="BGENDTC" DataType="datetime"  SASFieldName="BGENDTC"><Description> <TranslatedText xml:lang="en">End Date/Time Animal Weighed</TranslatedText> </Description>
  <def:Origin Type="COLLECTED"/>
</ItemDef>
<ItemDef OID="IT.BGDY" Name="BGDY" DataType="integer"  Length="8"  def:CommentOID="COM.BGDY" SASFieldName="BGDY"><Description> <TranslatedText xml:lang="en">Study Day of Start of Interval</TranslatedText> </Description>
  <def:Origin Type="DERIVED"/>
</ItemDef>
<ItemDef OID="IT.BGENDY" Name="BGENDY" DataType="integer"  Length="8"  def:CommentOID="COM.BGENDY" SASFieldName="BGENDY"><Description> <TranslatedText xml:lang="en">Study Day of End of Weight Interval</TranslatedText> </Description>
  <def:Origin Type="DERIVED"/>
</ItemDef>
<ItemDef OID="IT.CV.STUDYID" Name="STUDYID" DataType="text"  Length="7"  SASFieldName="STUDYID"><Description> <TranslatedText xml:lang="en">Study Identifier</TranslatedText> </Description>
  <def:Origin Type="OTHER"/>
</ItemDef>
<ItemDef OID="IT.CV.DOMAIN" Name="DOMAIN" DataType="text"  Length="2"  SASFieldName="DOMAIN"><Description> <TranslatedText xml:lang="en">Domain Abbreviation</TranslatedText> </Description>
  <CodeListRef CodeListOID="SDOMAIN"/>
  <def:Origin Type="OTHER"/>
</ItemDef>
<ItemDef OID="IT.CV.USUBJID" Name="USUBJID" DataType="text"  Length="13"  SASFieldName="USUBJID"><Description> <TranslatedText xml:lang="en">Unique Subject Identifier</TranslatedText> </Description>
  <def:Origin Type="OTHER"/>
</ItemDef>
<ItemDef OID="IT.CV.CVSEQ" Name="CVSEQ" DataType="integer"  Length="8"  SASFieldName="CVSEQ"><Description> <TranslatedText xml:lang="en">Sequence Number</TranslatedText> </Description>
  <def:Origin Type="OTHER"/>
</ItemDef>
<ItemDef OID="IT.CV.CVTESTCD" Name="CVTESTCD" DataType="text"  Length="7"  SASFieldName="CVTESTCD"><Description> <TranslatedText xml:lang="en">Test Short Name</TranslatedText> </Description>
  <CodeListRef CodeListOID="SCVTSTCD"/>
  <def:Origin Type="OTHER"/>
</ItemDef>
<ItemDef OID="IT.CV.CVTEST" Name="CVTEST" DataType="text"  Length="24"  SASFieldName="CVTEST"><Description> <TranslatedText xml:lang="en">Test Name</TranslatedText> </Description>
  <CodeListRef CodeListOID="SCVTST"/>
  <def:Origin Type="OTHER"/>
</ItemDef>
<ItemDef OID="IT.CV.CVPOS" Name="CVPOS" DataType="text"  Length="13"  SASFieldName="CVPOS"><Description> <TranslatedText xml:lang="en">Position of Subject During Test</TranslatedText> </Description>
  <CodeListRef CodeListOID="POSITION"/>
  <def:Origin Type="OTHER"/>
</ItemDef>
<ItemDef OID="IT.CV.CVORRES" Name="CVORRES" DataType="text"  Length="11"  SASFieldName="CVORRES"><Description> <TranslatedText xml:lang="en">Result or Findings as Collected</TranslatedText> </Description>
  <def:Origin Type="COLLECTED"/>
</ItemDef>
<ItemDef OID="IT.CV.CVORRESU" Name="CVORRESU" DataType="text"  Length="9"  SASFieldName="CVORRESU"><Description> <TranslatedText xml:lang="en">Unit of the Original Result</TranslatedText> </Description>
  <CodeListRef CodeListOID="UNIT"/>
  <def:Origin Type="COLLECTED"/>
</ItemDef>
<ItemDef OID="IT.CV.CVSTRESC" Name="CVSTRESC" DataType="text"  Length="11"  SASFieldName="CVSTRESC"><Description> <TranslatedText xml:lang="en">Standardized Result in Character Format</TranslatedText> </Description>
  <def:Origin Type="COLLECTED"/>
</ItemDef>
<ItemDef OID="IT.CV.CVSTRESN" Name="CVSTRESN" DataType="integer"  Length="8"  SASFieldName="CVSTRESN"><Description> <TranslatedText xml:lang="en">Standardized Result in Numeric Format</TranslatedText> </Description>
  <def:Origin Type="COLLECTED"/>
</ItemDef>
<ItemDef OID="IT.CV.CVSTRESU" Name="CVSTRESU" DataType="text"  Length="9"  SASFieldName="CVSTRESU"><Description> <TranslatedText xml:lang="en">Unit of the Standardized Result</TranslatedText> </Description>
  <CodeListRef CodeListOID="UNIT"/>
  <def:Origin Type="COLLECTED"/>
</ItemDef>
<ItemDef OID="IT.CV.CVMETHOD" Name="CVMETHOD" DataType="text"  Length="13"  SASFieldName="CVMETHOD"><Description> <TranslatedText xml:lang="en">Method of Test</TranslatedText> </Description>
  <def:Origin Type="OTHER"/>
</ItemDef>
<ItemDef OID="IT.CV.CVCSTATE" Name="CVCSTATE" DataType="text"  Length="9"  SASFieldName="CVCSTATE"><Description> <TranslatedText xml:lang="en">Consciousness State</TranslatedText> </Description>
  <CodeListRef CodeListOID="CSTATE"/>
  <def:Origin Type="OTHER"/>
</ItemDef>
<ItemDef OID="IT.CVBLFL" Name="CVBLFL" DataType="text"  Length="1"  def:CommentOID="COM.CVBLFL" SASFieldName="CVBLFL"><Description> <TranslatedText xml:lang="en">Baseline Flag</TranslatedText> </Description>
  <CodeListRef CodeListOID="NY"/>
  <def:Origin Type="OTHER"/>
</ItemDef>
<ItemDef OID="IT.CV.CVDTC" Name="CVDTC" DataType="datetime"  SASFieldName="CVDTC"><Description> <TranslatedText xml:lang="en">Date/Time of Cardiovascular Test</TranslatedText> </Description>
  <def:Origin Type="COLLECTED"/>
</ItemDef>
<ItemDef OID="IT.CV.CVENDTC" Name="CVENDTC" DataType="datetime"  SASFieldName="CVENDTC"><Description> <TranslatedText xml:lang="en">End Date/Time of Cardiovascular Test</TranslatedText> </Description>
  <def:Origin Type="COLLECTED"/>
</ItemDef>
<ItemDef OID="IT.CVDY" Name="CVDY" DataType="integer"  Length="8"  def:CommentOID="COM.CVDY" SASFieldName="CVDY"><Description> <TranslatedText xml:lang="en">Study Day of Cardiovascular Test</TranslatedText> </Description>
  <def:Origin Type="DERIVED"/>
</ItemDef>
<ItemDef OID="IT.CVENDY" Name="CVENDY" DataType="integer"  Length="8"  def:CommentOID="COM.CVENDY" SASFieldName="CVENDY"><Description> <TranslatedText xml:lang="en">Study Day of End of Cardiovascular Test</TranslatedText> </Description>
  <def:Origin Type="DERIVED"/>
</ItemDef>
<ItemDef OID="IT.CVNOMDY" Name="CVNOMDY" DataType="integer"  Length="8"  def:CommentOID="COM.CVNOMDY" SASFieldName="CVNOMDY"><Description> <TranslatedText xml:lang="en">Nominal Study Day for Tabulations</TranslatedText> </Description>
  <def:Origin Type="DERIVED"/>
</ItemDef>
<ItemDef OID="IT.CV.CVTPT" Name="CVTPT" DataType="text"  Length="13"  SASFieldName="CVTPT"><Description> <TranslatedText xml:lang="en">Planned Time Point Name</TranslatedText> </Description>
  <def:Origin Type="OTHER"/>
</ItemDef>
<ItemDef OID="IT.CV.CVTPTNUM" Name="CVTPTNUM" DataType="integer"  Length="8"  SASFieldName="CVTPTNUM"><Description> <TranslatedText xml:lang="en">Planned Time Point Number</TranslatedText> </Description>
  <def:Origin Type="OTHER"/>
</ItemDef>
<ItemDef OID="IT.CV.CVELTM" Name="CVELTM" DataType="text"  Length="6"  SASFieldName="CVELTM"><Description> <TranslatedText xml:lang="en">Planned Elapsed Time from Time Point Ref</TranslatedText> </Description>
  <def:Origin Type="OTHER"/>
</ItemDef>
<ItemDef OID="IT.CV.CVTPTREF" Name="CVTPTREF" DataType="text"  Length="15"  SASFieldName="CVTPTREF"><Description> <TranslatedText xml:lang="en">Time Point Reference</TranslatedText> </Description>
  <def:Origin Type="OTHER"/>
</ItemDef>
<ItemDef OID="IT.CV.CVRFTDTC" Name="CVRFTDTC" DataType="datetime"  SASFieldName="CVRFTDTC"><Description> <TranslatedText xml:lang="en">Date/Time of Reference Time Point</TranslatedText> </Description>
  <def:Origin Type="OTHER"/>
</ItemDef>
<ItemDef OID="IT.CV.CVSTINT" Name="CVSTINT" DataType="text"  Length="5"  SASFieldName="CVSTINT"><Description> <TranslatedText xml:lang="en">Planned Start of Assessment Interval</TranslatedText> </Description>
  <def:Origin Type="OTHER"/>
</ItemDef>
<ItemDef OID="IT.CV.CVENINT" Name="CVENINT" DataType="text"  Length="6"  SASFieldName="CVENINT"><Description> <TranslatedText xml:lang="en">Planned End of Assessment Interval</TranslatedText> </Description>
  <def:Origin Type="OTHER"/>
</ItemDef>
<ItemDef OID="IT.CL.STUDYID" Name="STUDYID" DataType="text"  Length="7"  SASFieldName="STUDYID"><Description> <TranslatedText xml:lang="en">Study Identifier</TranslatedText> </Description>
  <def:Origin Type="OTHER"/>
</ItemDef>
<ItemDef OID="IT.CL.DOMAIN" Name="DOMAIN" DataType="text"  Length="2"  SASFieldName="DOMAIN"><Description> <TranslatedText xml:lang="en">Domain Abbreviation</TranslatedText> </Description>
  <CodeListRef CodeListOID="SDOMAIN"/>
  <def:Origin Type="OTHER"/>
</ItemDef>
<ItemDef OID="IT.CL.USUBJID" Name="USUBJID" DataType="text"  Length="13"  SASFieldName="USUBJID"><Description> <TranslatedText xml:lang="en">Unique Subject Identifier</TranslatedText> </Description>
  <def:Origin Type="OTHER"/>
</ItemDef>
<ItemDef OID="IT.CL.CLSEQ" Name="CLSEQ" DataType="integer"  Length="8"  SASFieldName="CLSEQ"><Description> <TranslatedText xml:lang="en">Sequence Number</TranslatedText> </Description>
  <def:Origin Type="OTHER"/>
</ItemDef>
<ItemDef OID="IT.CLGRPID" Name="CLGRPID" DataType="text"  Length="8"  def:CommentOID="COM.CLGRPID" SASFieldName="CLGRPID"><Description> <TranslatedText xml:lang="en">Group Identifier</TranslatedText> </Description>
  <def:Origin Type="OTHER"/>
</ItemDef>
<ItemDef OID="IT.CL.CLTESTCD" Name="CLTESTCD" DataType="text"  Length="8"  SASFieldName="CLTESTCD"><Description> <TranslatedText xml:lang="en">Test Short Name</TranslatedText> </Description>
  <CodeListRef CodeListOID="CLTESTCD"/>
  <def:Origin Type="OTHER"/>
</ItemDef>
<ItemDef OID="IT.CL.CLTEST" Name="CLTEST" DataType="text"  Length="20"  SASFieldName="CLTEST"><Description> <TranslatedText xml:lang="en">Test Name</TranslatedText> </Description>
  <CodeListRef CodeListOID="CLTEST"/>
  <def:Origin Type="OTHER"/>
</ItemDef>
<ItemDef OID="IT.CL.CLCAT" Name="CLCAT" DataType="text"  Length="14"  SASFieldName="CLCAT"><Description> <TranslatedText xml:lang="en">Category for Clinical Observations</TranslatedText> </Description>
  <CodeListRef CodeListOID="CLCAT"/>
  <def:Origin Type="OTHER"/>
</ItemDef>
<ItemDef OID="IT.CL.CLSCAT" Name="CLSCAT" DataType="text"  Length="36"  SASFieldName="CLSCAT"><Description> <TranslatedText xml:lang="en">Subcategory for Clinical Observations</TranslatedText> </Description>
  <CodeListRef CodeListOID="CLSCAT"/>
  <def:Origin Type="OTHER"/>
</ItemDef>
<ItemDef OID="IT.CL.CLORRES" Name="CLORRES" DataType="text"  Length="64"  SASFieldName="CLORRES"><Description> <TranslatedText xml:lang="en">Result or Findings as Collected</TranslatedText> </Description>
  <def:Origin Type="COLLECTED"/>
</ItemDef>
<ItemDef OID="IT.CL.CLSTRESC" Name="CLSTRESC" DataType="text"  Length="40"  SASFieldName="CLSTRESC"><Description> <TranslatedText xml:lang="en">Standardized Result in Character Format</TranslatedText> </Description>

  <def:Origin Type="COLLECTED"/>
</ItemDef>
<ItemDef OID="IT.CL.CLLOC" Name="CLLOC" DataType="text"  Length="16"  SASFieldName="CLLOC"><Description> <TranslatedText xml:lang="en">Location of a Finding</TranslatedText> </Description>
  <def:Origin Type="COLLECTED"/>
</ItemDef>
<ItemDef OID="IT.CL.CLUSCHFL" Name="CLUSCHFL" DataType="text"  Length="1"  SASFieldName="CLUSCHFL"><Description> <TranslatedText xml:lang="en">Unscheduled Flag</TranslatedText> </Description>
  <CodeListRef CodeListOID="NY"/>
  <def:Origin Type="OTHER"/>
</ItemDef>
<ItemDef OID="IT.CL.VISITDY" Name="VISITDY" DataType="integer"  Length="8"  def:CommentOID="COM.CL.VISITDY" SASFieldName="VISITDY"><Description> <TranslatedText xml:lang="en">Planned Study Day of Collection</TranslatedText> </Description>
  <def:Origin Type="DERIVED"/>
</ItemDef>
<ItemDef OID="IT.CL.CLDTC" Name="CLDTC" DataType="datetime"  SASFieldName="CLDTC"><Description> <TranslatedText xml:lang="en">Date/Time of Observation</TranslatedText> </Description>
  <def:Origin Type="COLLECTED"/>
</ItemDef>
<ItemDef OID="IT.CLDY" Name="CLDY" DataType="integer"  Length="8"  def:CommentOID="COM.CLDY" SASFieldName="CLDY"><Description> <TranslatedText xml:lang="en">Study Day of Observation</TranslatedText> </Description>
  <def:Origin Type="DERIVED"/>
</ItemDef>
<ItemDef OID="IT.CLNOMDY" Name="CLNOMDY" DataType="integer"  Length="8"  def:CommentOID="COM.CLNOMDY" SASFieldName="CLNOMDY"><Description> <TranslatedText xml:lang="en">Nominal Study Day for Tabulations</TranslatedText> </Description>
  <def:Origin Type="DERIVED"/>
</ItemDef>
<ItemDef OID="IT.CLNOMLBL" Name="CLNOMLBL" DataType="text"  Length="25"  def:CommentOID="COM.CLNOMLBL" SASFieldName="CLNOMLBL"><Description> <TranslatedText xml:lang="en">Label for Nominal Study Day</TranslatedText> </Description>
  <def:Origin Type="DERIVED"/>
</ItemDef>
<ItemDef OID="IT.CL.CLTPT" Name="CLTPT" DataType="text"  Length="10"  SASFieldName="CLTPT"><Description> <TranslatedText xml:lang="en">Planned Time Point Name</TranslatedText> </Description>
  <def:Origin Type="OTHER"/>
</ItemDef>
<ItemDef OID="IT.CL.CLTPTNUM" Name="CLTPTNUM" DataType="integer"  Length="8"  SASFieldName="CLTPTNUM"><Description> <TranslatedText xml:lang="en">Planned Time Point Number</TranslatedText> </Description>
  <def:Origin Type="OTHER"/>
</ItemDef>
<ItemDef OID="IT.CL.CLELTM" Name="CLELTM" DataType="text"  Length="4"  SASFieldName="CLELTM"><Description> <TranslatedText xml:lang="en">Planned Elapsed Time from Time Point Ref</TranslatedText> </Description>
  <def:Origin Type="OTHER"/>
</ItemDef>
<ItemDef OID="IT.CL.CLTPTREF" Name="CLTPTREF" DataType="text"  Length="13"  SASFieldName="CLTPTREF"><Description> <TranslatedText xml:lang="en">Time Point Reference</TranslatedText> </Description>
  <def:Origin Type="OTHER"/>
</ItemDef>
<ItemDef OID="IT.CL.CLRFTDTC" Name="CLRFTDTC" DataType="datetime"  SASFieldName="CLRFTDTC"><Description> <TranslatedText xml:lang="en">Date/Time of Reference Time Point</TranslatedText> </Description>
  <def:Origin Type="COLLECTED"/>
</ItemDef>
<ItemDef OID="IT.EG.STUDYID" Name="STUDYID" DataType="text"  Length="7"  SASFieldName="STUDYID"><Description> <TranslatedText xml:lang="en">Study Identifier</TranslatedText> </Description>
  <def:Origin Type="OTHER"/>
</ItemDef>
<ItemDef OID="IT.EG.DOMAIN" Name="DOMAIN" DataType="text"  Length="2"  SASFieldName="DOMAIN"><Description> <TranslatedText xml:lang="en">Domain Abbreviation</TranslatedText> </Description>
  <CodeListRef CodeListOID="SDOMAIN"/>
  <def:Origin Type="OTHER"/>
</ItemDef>
<ItemDef OID="IT.EG.USUBJID" Name="USUBJID" DataType="text"  Length="13"  SASFieldName="USUBJID"><Description> <TranslatedText xml:lang="en">Unique Subject Identifier</TranslatedText> </Description>
  <def:Origin Type="OTHER"/>
</ItemDef>
<ItemDef OID="IT.EG.EGSEQ" Name="EGSEQ" DataType="integer"  Length="8"  SASFieldName="EGSEQ"><Description> <TranslatedText xml:lang="en">Sequence Number</TranslatedText> </Description>
  <def:Origin Type="OTHER"/>
</ItemDef>
<ItemDef OID="IT.EG.EGTESTCD" Name="EGTESTCD" DataType="text"  Length="6"  SASFieldName="EGTESTCD"><Description> <TranslatedText xml:lang="en">ECG Test Short Name</TranslatedText> </Description>
  <CodeListRef CodeListOID="EGTESTCD"/>
  <def:Origin Type="OTHER"/>
</ItemDef>
<ItemDef OID="IT.EG.EGTEST" Name="EGTEST" DataType="text"  Length="24"  SASFieldName="EGTEST"><Description> <TranslatedText xml:lang="en">ECG Test Name</TranslatedText> </Description>
  <CodeListRef CodeListOID="EGTEST"/>
  <def:Origin Type="OTHER"/>
</ItemDef>
<ItemDef OID="IT.EG.EGCAT" Name="EGCAT" DataType="text"  Length="11"  SASFieldName="EGCAT"><Description> <TranslatedText xml:lang="en">Category for ECG</TranslatedText> </Description>
  <CodeListRef CodeListOID="EGCATSND"/>
  <def:Origin Type="OTHER"/>
</ItemDef>
<ItemDef OID="IT.EG.EGPOS" Name="EGPOS" DataType="text"  Length="13"  SASFieldName="EGPOS"><Description> <TranslatedText xml:lang="en">ECG Position of Subject</TranslatedText> </Description>
  <CodeListRef CodeListOID="POSITION"/>
  <def:Origin Type="OTHER"/>
</ItemDef>
<ItemDef OID="IT.EG.EGORRES" Name="EGORRES" DataType="text"  Length="11"  SASFieldName="EGORRES"><Description> <TranslatedText xml:lang="en">Result or Findings as Collected</TranslatedText> </Description>
  <def:Origin Type="COLLECTED"/>
</ItemDef>
<ItemDef OID="IT.EG.EGORRESU" Name="EGORRESU" DataType="text"  Length="9"  SASFieldName="EGORRESU"><Description> <TranslatedText xml:lang="en">Unit of the Original Result</TranslatedText> </Description>
  <CodeListRef CodeListOID="UNIT"/>
  <def:Origin Type="COLLECTED"/>
</ItemDef>
<ItemDef OID="IT.EG.EGSTRESC" Name="EGSTRESC" DataType="text"  Length="11"  SASFieldName="EGSTRESC"><Description> <TranslatedText xml:lang="en">Standardized Result in Character Format</TranslatedText> </Description>
  <CodeListRef CodeListOID="EGSTRESC"/>
  <def:Origin Type="COLLECTED"/>
</ItemDef>
<ItemDef OID="IT.EG.EGSTRESN" Name="EGSTRESN" DataType="float"  Length="8"  SignificantDigits="8"  SASFieldName="EGSTRESN"><Description> <TranslatedText xml:lang="en">Standardized Result in Numeric Format</TranslatedText> </Description>
  <def:Origin Type="COLLECTED"/>
</ItemDef>
<ItemDef OID="IT.EG.EGSTRESU" Name="EGSTRESU" DataType="text"  Length="9"  SASFieldName="EGSTRESU"><Description> <TranslatedText xml:lang="en">Unit of the Standardized Result</TranslatedText> </Description>
  <CodeListRef CodeListOID="UNIT"/>
  <def:Origin Type="COLLECTED"/>
</ItemDef>
<ItemDef OID="IT.EG.EGNAM" Name="EGNAM" DataType="text"  Length="12"  SASFieldName="EGNAM"><Description> <TranslatedText xml:lang="en">Laboratory Name</TranslatedText> </Description>
  <def:Origin Type="OTHER"/>
</ItemDef>
<ItemDef OID="IT.EG.EGMETHOD" Name="EGMETHOD" DataType="text"  Length="58"  SASFieldName="EGMETHOD"><Description> <TranslatedText xml:lang="en">Method of ECG Test</TranslatedText> </Description>
  <CodeListRef CodeListOID="EGMETHOD"/>
  <def:Origin Type="OTHER"/>
</ItemDef>
<ItemDef OID="IT.EG.EGLEAD" Name="EGLEAD" DataType="text"  Length="7"  SASFieldName="EGLEAD"><Description> <TranslatedText xml:lang="en">Lead Used for Measurement</TranslatedText> </Description>
  <CodeListRef CodeListOID="EGLEAD"/>
  <def:Origin Type="OTHER"/>
</ItemDef>
<ItemDef OID="IT.EG.EGCSTATE" Name="EGCSTATE" DataType="text"  Length="9"  SASFieldName="EGCSTATE"><Description> <TranslatedText xml:lang="en">Consciousness State</TranslatedText> </Description>
  <CodeListRef CodeListOID="CSTATE"/>
  <def:Origin Type="OTHER"/>
</ItemDef>
<ItemDef OID="IT.EGBLFL" Name="EGBLFL" DataType="text"  Length="1"  def:CommentOID="COM.EGBLFL" SASFieldName="EGBLFL"><Description> <TranslatedText xml:lang="en">Baseline Flag</TranslatedText> </Description>
  <CodeListRef CodeListOID="NY"/>
  <def:Origin Type="OTHER"/>
</ItemDef>
<ItemDef OID="IT.EG.EGDTC" Name="EGDTC" DataType="datetime"  SASFieldName="EGDTC"><Description> <TranslatedText xml:lang="en">Date/Time of ECG Collection</TranslatedText> </Description>
  <def:Origin Type="COLLECTED"/>
</ItemDef>
<ItemDef OID="IT.EG.EGENDTC" Name="EGENDTC" DataType="datetime"  SASFieldName="EGENDTC"><Description> <TranslatedText xml:lang="en">End Date/Time of ECG Collection</TranslatedText> </Description>
  <def:Origin Type="COLLECTED"/>
</ItemDef>
<ItemDef OID="IT.EGDY" Name="EGDY" DataType="integer"  Length="8"  def:CommentOID="COM.EGDY" SASFieldName="EGDY"><Description> <TranslatedText xml:lang="en">Study Day of ECG Collection</TranslatedText> </Description>
  <def:Origin Type="DERIVED"/>
</ItemDef>
<ItemDef OID="IT.EGENDY" Name="EGENDY" DataType="integer"  Length="8"  def:CommentOID="COM.EGENDY" SASFieldName="EGENDY"><Description> <TranslatedText xml:lang="en">Study Day of End of ECG Collection</TranslatedText> </Description>
  <def:Origin Type="DERIVED"/>
</ItemDef>
<ItemDef OID="IT.EGNOMDY" Name="EGNOMDY" DataType="integer"  Length="8"  def:CommentOID="COM.EGNOMDY" SASFieldName="EGNOMDY"><Description> <TranslatedText xml:lang="en">Nominal Study Day for Tabulations</TranslatedText> </Description>
  <def:Origin Type="DERIVED"/>
</ItemDef>
<ItemDef OID="IT.EG.EGTPT" Name="EGTPT" DataType="text"  Length="13"  SASFieldName="EGTPT"><Description> <TranslatedText xml:lang="en">Planned Time Point Name</TranslatedText> </Description>
  <def:Origin Type="OTHER"/>
</ItemDef>
<ItemDef OID="IT.EG.EGTPTNUM" Name="EGTPTNUM" DataType="integer"  Length="8"  SASFieldName="EGTPTNUM"><Description> <TranslatedText xml:lang="en">Planned Time Point Number</TranslatedText> </Description>
  <def:Origin Type="OTHER"/>
</ItemDef>
<ItemDef OID="IT.EG.EGELTM" Name="EGELTM" DataType="text"  Length="6"  SASFieldName="EGELTM"><Description> <TranslatedText xml:lang="en">Planned Elapsed Time from Time Point Ref</TranslatedText> </Description>
  <def:Origin Type="OTHER"/>
</ItemDef>
<ItemDef OID="IT.EG.EGTPTREF" Name="EGTPTREF" DataType="text"  Length="15"  SASFieldName="EGTPTREF"><Description> <TranslatedText xml:lang="en">Time Point Reference</TranslatedText> </Description>
  <def:Origin Type="OTHER"/>
</ItemDef>
<ItemDef OID="IT.EG.EGRFTDTC" Name="EGRFTDTC" DataType="datetime"  SASFieldName="EGRFTDTC"><Description> <TranslatedText xml:lang="en">Date/Time of Reference Time Point</TranslatedText> </Description>
  <def:Origin Type="COLLECTED"/>
</ItemDef>
<ItemDef OID="IT.EG.EGSTINT" Name="EGSTINT" DataType="text"  Length="5"  SASFieldName="EGSTINT"><Description> <TranslatedText xml:lang="en">Planned Start of Assessment Interval</TranslatedText> </Description>
  <def:Origin Type="OTHER"/>
</ItemDef>
<ItemDef OID="IT.EG.EGENINT" Name="EGENINT" DataType="text"  Length="6"  SASFieldName="EGENINT"><Description> <TranslatedText xml:lang="en">Planned End of Assessment Interval</TranslatedText> </Description>
  <def:Origin Type="OTHER"/>
</ItemDef>
<ItemDef OID="IT.PC.STUDYID" Name="STUDYID" DataType="text"  Length="7"  SASFieldName="STUDYID"><Description> <TranslatedText xml:lang="en">Study Identifier</TranslatedText> </Description>
  <def:Origin Type="OTHER"/>
</ItemDef>
<ItemDef OID="IT.PC.DOMAIN" Name="DOMAIN" DataType="text"  Length="2"  SASFieldName="DOMAIN"><Description> <TranslatedText xml:lang="en">Domain Abbreviation</TranslatedText> </Description>
  <CodeListRef CodeListOID="SDOMAIN"/>
  <def:Origin Type="OTHER"/>
</ItemDef>
<ItemDef OID="IT.PC.USUBJID" Name="USUBJID" DataType="text"  Length="13"  SASFieldName="USUBJID"><Description> <TranslatedText xml:lang="en">Unique Subject Identifier</TranslatedText> </Description>
  <def:Origin Type="OTHER"/>
</ItemDef>
<ItemDef OID="IT.PC.PCSEQ" Name="PCSEQ" DataType="integer"  Length="8"  SASFieldName="PCSEQ"><Description> <TranslatedText xml:lang="en">Sequence Number</TranslatedText> </Description>
  <def:Origin Type="OTHER"/>
</ItemDef>
<ItemDef OID="IT.PC.PCGRPID" Name="PCGRPID" DataType="text"  Length="9"  SASFieldName="PCGRPID"><Description> <TranslatedText xml:lang="en">Group Identifier</TranslatedText> </Description>
  <def:Origin Type="OTHER"/>
</ItemDef>
<ItemDef OID="IT.PC.PCREFID" Name="PCREFID" DataType="text"  Length="2"  SASFieldName="PCREFID"><Description> <TranslatedText xml:lang="en">Sample Identifier</TranslatedText> </Description>
  <def:Origin Type="OTHER"/>
</ItemDef>
<ItemDef OID="IT.PC.PCTESTCD" Name="PCTESTCD" DataType="text"  Length="8"  SASFieldName="PCTESTCD"><Description> <TranslatedText xml:lang="en">Test Short Name</TranslatedText> </Description>
  <def:Origin Type="OTHER"/>
</ItemDef>
<ItemDef OID="IT.PC.PCTEST" Name="PCTEST" DataType="text"  Length="9"  SASFieldName="PCTEST"><Description> <TranslatedText xml:lang="en">Test Name</TranslatedText> </Description>
  <def:Origin Type="OTHER"/>
</ItemDef>
<ItemDef OID="IT.PC.PCCAT" Name="PCCAT" DataType="text"  Length="7"  SASFieldName="PCCAT"><Description> <TranslatedText xml:lang="en">Test Category</TranslatedText> </Description>
  <def:Origin Type="OTHER"/>
</ItemDef>
<ItemDef OID="IT.PCORRES" Name="PCORRES" DataType="text"  Length="6"  def:CommentOID="COM.PCORRES" SASFieldName="PCORRES"><Description> <TranslatedText xml:lang="en">Result or Findings as Collected</TranslatedText> </Description>
  <def:Origin Type="COLLECTED"/>
</ItemDef>
<ItemDef OID="IT.PC.PCORRESU" Name="PCORRESU" DataType="text"  Length="5"  SASFieldName="PCORRESU"><Description> <TranslatedText xml:lang="en">Unit of the Original Result</TranslatedText> </Description>
  <CodeListRef CodeListOID="PKUNIT"/>
  <def:Origin Type="OTHER"/>
</ItemDef>
<ItemDef OID="IT.PC.PCSTRESC" Name="PCSTRESC" DataType="text"  Length="6"  SASFieldName="PCSTRESC"><Description> <TranslatedText xml:lang="en">Standardized Result in Character Format</TranslatedText> </Description>
  <def:Origin Type="COLLECTED"/>
</ItemDef>
<ItemDef OID="IT.PC.PCSTRESN" Name="PCSTRESN" DataType="float"  Length="8"  SignificantDigits="2"  SASFieldName="PCSTRESN"><Description> <TranslatedText xml:lang="en">Standardized Result in Numeric Format</TranslatedText> </Description>
  <def:Origin Type="COLLECTED"/>
</ItemDef>
<ItemDef OID="IT.PC.PCSTRESU" Name="PCSTRESU" DataType="text"  Length="5"  SASFieldName="PCSTRESU"><Description> <TranslatedText xml:lang="en">Unit of the Standardized Result</TranslatedText> </Description>
  <CodeListRef CodeListOID="PKUNIT"/>
  <def:Origin Type="OTHER"/>
</ItemDef>
<ItemDef OID="IT.PC.PCNAM" Name="PCNAM" DataType="text"  Length="16"  SASFieldName="PCNAM"><Description> <TranslatedText xml:lang="en">Laboratory Name</TranslatedText> </Description>
  <def:Origin Type="OTHER"/>
</ItemDef>
<ItemDef OID="IT.PC.PCSPEC" Name="PCSPEC" DataType="text"  Length="6"  SASFieldName="PCSPEC"><Description> <TranslatedText xml:lang="en">Specimen Material Type</TranslatedText> </Description>
  <CodeListRef CodeListOID="SPEC"/>
  <def:Origin Type="OTHER"/>
</ItemDef>
<ItemDef OID="IT.PC.PCMETHOD" Name="PCMETHOD" DataType="text"  Length="16"  SASFieldName="PCMETHOD"><Description> <TranslatedText xml:lang="en">Method of Test or Examination</TranslatedText> </Description>
  <def:Origin Type="OTHER"/>
</ItemDef>
<ItemDef OID="IT.PCBLFL" Name="PCBLFL" DataType="text"  Length="1"  def:CommentOID="COM.PCBLFL" SASFieldName="PCBLFL"><Description> <TranslatedText xml:lang="en">Baseline Flag</TranslatedText> </Description>
  <CodeListRef CodeListOID="NY"/>
  <def:Origin Type="OTHER"/>
</ItemDef>
<ItemDef OID="IT.PC.PCLLOQ" Name="PCLLOQ" DataType="float"  Length="8"  SignificantDigits="0"  SASFieldName="PCLLOQ"><Description> <TranslatedText xml:lang="en">Lower Limit of Quantitation</TranslatedText> </Description>
  <def:Origin Type="OTHER"/>
</ItemDef>
<ItemDef OID="IT.PC.VISITDY" Name="VISITDY" DataType="integer"  Length="8"  SASFieldName="VISITDY"><Description> <TranslatedText xml:lang="en">Visit Day</TranslatedText> </Description>
  <def:Origin Type="DERIVED"/>
</ItemDef>
<ItemDef OID="IT.PCDTC" Name="PCDTC" DataType="datetime"  def:CommentOID="COM.PCDTC" SASFieldName="PCDTC"><Description> <TranslatedText xml:lang="en">Date/Time of Specimen Collection</TranslatedText> </Description>
  <def:Origin Type="COLLECTED"/>
</ItemDef>
<ItemDef OID="IT.PCDY" Name="PCDY" DataType="integer"  Length="8"  def:CommentOID="COM.PCDY" SASFieldName="PCDY"><Description> <TranslatedText xml:lang="en">Study Day of Specimen Collection</TranslatedText> </Description>
  <def:Origin Type="DERIVED"/>
</ItemDef>
<ItemDef OID="IT.PCNOMDY" Name="PCNOMDY" DataType="integer"  Length="8"  def:CommentOID="COM.PCNOMDY" SASFieldName="PCNOMDY"><Description> <TranslatedText xml:lang="en">Nominal Study Day for Tabulations</TranslatedText> </Description>
  <def:Origin Type="DERIVED"/>
</ItemDef>
<ItemDef OID="IT.PC.PCNOMLBL" Name="PCNOMLBL" DataType="text"  Length="6"  SASFieldName="PCNOMLBL"><Description> <TranslatedText xml:lang="en">Label for Nominal Study Day</TranslatedText> </Description>
  <def:Origin Type="DERIVED"/>
</ItemDef>
<ItemDef OID="IT.PC.PCTPT" Name="PCTPT" DataType="text"  Length="2"  SASFieldName="PCTPT"><Description> <TranslatedText xml:lang="en">Planned Time Point Name</TranslatedText> </Description>
  <def:Origin Type="OTHER"/>
</ItemDef>
<ItemDef OID="IT.PC.PCTPTNUM" Name="PCTPTNUM" DataType="integer"  Length="8"  SASFieldName="PCTPTNUM"><Description> <TranslatedText xml:lang="en">Planned Time Point Number</TranslatedText> </Description>
  <def:Origin Type="OTHER"/>
</ItemDef>
<ItemDef OID="IT.PC.PCELTM" Name="PCELTM" DataType="text"  Length="4"  SASFieldName="PCELTM"><Description> <TranslatedText xml:lang="en">Planned Elapsed Time from Time Point Ref</TranslatedText> </Description>
  <def:Origin Type="OTHER"/>
</ItemDef>
<ItemDef OID="IT.PC.PCTPTREF" Name="PCTPTREF" DataType="text"  Length="12"  SASFieldName="PCTPTREF"><Description> <TranslatedText xml:lang="en">Time Point Reference</TranslatedText> </Description>
  <def:Origin Type="OTHER"/>
</ItemDef>
<ItemDef OID="IT.PC.PCRFTDTC" Name="PCRFTDTC" DataType="datetime"  SASFieldName="PCRFTDTC"><Description> <TranslatedText xml:lang="en">Date/Time of Reference Point</TranslatedText> </Description>
  <def:Origin Type="COLLECTED"/>
</ItemDef>
<ItemDef OID="IT.TA.STUDYID" Name="STUDYID" DataType="text"  Length="7"  SASFieldName="STUDYID"><Description> <TranslatedText xml:lang="en">Study Identifier</TranslatedText> </Description>
  <def:Origin Type="OTHER"/>
</ItemDef>
<ItemDef OID="IT.TA.DOMAIN" Name="DOMAIN" DataType="text"  Length="2"  SASFieldName="DOMAIN"><Description> <TranslatedText xml:lang="en">Domain Abbreviation</TranslatedText> </Description>
  <CodeListRef CodeListOID="SDOMAIN"/>
  <def:Origin Type="OTHER"/>
</ItemDef>
<ItemDef OID="IT.TA.ARMCD" Name="ARMCD" DataType="text"  Length="1"  SASFieldName="ARMCD"><Description> <TranslatedText xml:lang="en">Planned Arm Code</TranslatedText> </Description>
  <def:Origin Type="OTHER"/>
</ItemDef>
<ItemDef OID="IT.TA.ARM" Name="ARM" DataType="text"  Length="11"  SASFieldName="ARM"><Description> <TranslatedText xml:lang="en">Description of Planned Arm</TranslatedText> </Description>
  <def:Origin Type="OTHER"/>
</ItemDef>
<ItemDef OID="IT.TA.TAETORD" Name="TAETORD" DataType="integer"  Length="8"  SASFieldName="TAETORD"><Description> <TranslatedText xml:lang="en">Order of Element within Arm</TranslatedText> </Description>
  <def:Origin Type="OTHER"/>
</ItemDef>
<ItemDef OID="IT.TA.ETCD" Name="ETCD" DataType="text"  Length="5"  SASFieldName="ETCD"><Description> <TranslatedText xml:lang="en">Element Code</TranslatedText> </Description>
  <def:Origin Type="OTHER"/>
</ItemDef>
<ItemDef OID="IT.TA.ELEMENT" Name="ELEMENT" DataType="text"  Length="9"  SASFieldName="ELEMENT"><Description> <TranslatedText xml:lang="en">Description of Element</TranslatedText> </Description>
  <def:Origin Type="OTHER"/>
</ItemDef>
<ItemDef OID="IT.TA.EPOCH" Name="EPOCH" DataType="text"  Length="7"  SASFieldName="EPOCH"><Description> <TranslatedText xml:lang="en">Trial Epoch</TranslatedText> </Description>
  <def:Origin Type="OTHER"/>
</ItemDef>
<ItemDef OID="IT.TE.STUDYID" Name="STUDYID" DataType="text"  Length="7"  SASFieldName="STUDYID"><Description> <TranslatedText xml:lang="en">Study Identifier</TranslatedText> </Description>
  <def:Origin Type="OTHER"/>
</ItemDef>
<ItemDef OID="IT.TE.DOMAIN" Name="DOMAIN" DataType="text"  Length="2"  SASFieldName="DOMAIN"><Description> <TranslatedText xml:lang="en">Domain Abbreviation</TranslatedText> </Description>
  <CodeListRef CodeListOID="SDOMAIN"/>
  <def:Origin Type="OTHER"/>
</ItemDef>
<ItemDef OID="IT.TE.ETCD" Name="ETCD" DataType="text"  Length="5"  SASFieldName="ETCD"><Description> <TranslatedText xml:lang="en">Element Code</TranslatedText> </Description>
  <def:Origin Type="OTHER"/>
</ItemDef>
<ItemDef OID="IT.TE.ELEMENT" Name="ELEMENT" DataType="text"  Length="9"  SASFieldName="ELEMENT"><Description> <TranslatedText xml:lang="en">Description of Element</TranslatedText> </Description>
  <def:Origin Type="OTHER"/>
</ItemDef>
<ItemDef OID="IT.TE.TESTRL" Name="TESTRL" DataType="text"  Length="32"  SASFieldName="TESTRL"><Description> <TranslatedText xml:lang="en">Rule for Start of Element</TranslatedText> </Description>
  <def:Origin Type="OTHER"/>
</ItemDef>
<ItemDef OID="IT.TE.TEENRL" Name="TEENRL" DataType="text"  Length="23"  SASFieldName="TEENRL"><Description> <TranslatedText xml:lang="en">Rule for End of Element</TranslatedText> </Description>
  <def:Origin Type="OTHER"/>
</ItemDef>
<ItemDef OID="IT.TX.STUDYID" Name="STUDYID" DataType="text"  Length="7"  SASFieldName="STUDYID"><Description> <TranslatedText xml:lang="en">Study Identifier</TranslatedText> </Description>
  <def:Origin Type="OTHER"/>
</ItemDef>
<ItemDef OID="IT.TX.DOMAIN" Name="DOMAIN" DataType="text"  Length="2"  SASFieldName="DOMAIN"><Description> <TranslatedText xml:lang="en">Domain Abbreviation</TranslatedText> </Description>
  <CodeListRef CodeListOID="SDOMAIN"/>
  <def:Origin Type="OTHER"/>
</ItemDef>
<ItemDef OID="IT.TX.SETCD" Name="SETCD" DataType="text"  Length="1"  SASFieldName="SETCD"><Description> <TranslatedText xml:lang="en">Set Code</TranslatedText> </Description>
  <def:Origin Type="OTHER"/>
</ItemDef>
<ItemDef OID="IT.TX.SET" Name="SET" DataType="text"  Length="11"  SASFieldName="SET"><Description> <TranslatedText xml:lang="en">Set Description</TranslatedText> </Description>
  <def:Origin Type="OTHER"/>
</ItemDef>
<ItemDef OID="IT.TX.TXSEQ" Name="TXSEQ" DataType="integer"  Length="8"  SASFieldName="TXSEQ"><Description> <TranslatedText xml:lang="en">Sequence Number</TranslatedText> </Description>
  <def:Origin Type="OTHER"/>
</ItemDef>
<ItemDef OID="IT.TX.TXPARMCD" Name="TXPARMCD" DataType="text"  Length="8"  SASFieldName="TXPARMCD"><Description> <TranslatedText xml:lang="en">Trial Set Parameter Short Name</TranslatedText> </Description>
  <CodeListRef CodeListOID="STSPRMCD"/>
  <def:Origin Type="OTHER"/>
</ItemDef>
<ItemDef OID="IT.TX.TXPARM" Name="TXPARM" DataType="text"  Length="31"  SASFieldName="TXPARM"><Description> <TranslatedText xml:lang="en">Trial Set Parameter</TranslatedText> </Description>
  <CodeListRef CodeListOID="STSPRM"/>
  <def:Origin Type="OTHER"/>
</ItemDef>
<ItemDef OID="IT.TX.TXVAL" Name="TXVAL" DataType="text"  Length="33"  SASFieldName="TXVAL"><Description> <TranslatedText xml:lang="en">Trial Set Parameter Value</TranslatedText> </Description>
  <def:Origin Type="OTHER"/>
<def:ValueListRef ValueListOID="VL.TX.TXVAL"/></ItemDef>
<ItemDef OID="IT.TS.STUDYID" Name="STUDYID" DataType="text"  Length="7"  SASFieldName="STUDYID"><Description> <TranslatedText xml:lang="en">Study Identifier</TranslatedText> </Description>
  <def:Origin Type="OTHER"/>
</ItemDef>
<ItemDef OID="IT.TS.DOMAIN" Name="DOMAIN" DataType="text"  Length="2"  SASFieldName="DOMAIN"><Description> <TranslatedText xml:lang="en">Domain Abbreviation</TranslatedText> </Description>
  <CodeListRef CodeListOID="SDOMAIN"/>
  <def:Origin Type="OTHER"/>
</ItemDef>
<ItemDef OID="IT.TS.TSSEQ" Name="TSSEQ" DataType="integer"  Length="8"  SASFieldName="TSSEQ"><Description> <TranslatedText xml:lang="en">Sequence Number</TranslatedText> </Description>
  <def:Origin Type="OTHER"/>
</ItemDef>
<ItemDef OID="IT.TS.TSGRPID" Name="TSGRPID" DataType="text"  Length="1"  SASFieldName="TSGRPID"><Description> <TranslatedText xml:lang="en">Group Identifier</TranslatedText> </Description>
  <def:Origin Type="OTHER"/>
</ItemDef>
<ItemDef OID="IT.TS.TSPARMCD" Name="TSPARMCD" DataType="text"  Length="8"  def:CommentOID="COM.TS.TSPARMCD" SASFieldName="TSPARMCD"><Description> <TranslatedText xml:lang="en">Trial Summary Parameter Short Name</TranslatedText> </Description>
  <CodeListRef CodeListOID="STSPRMCD"/>
  <def:Origin Type="OTHER"/>
</ItemDef>
<ItemDef OID="IT.TS.TSPARM" Name="TSPARM" DataType="text"  Length="38"  SASFieldName="TSPARM"><Description> <TranslatedText xml:lang="en">Trial Summary Parameter</TranslatedText> </Description>
  <CodeListRef CodeListOID="STSPRM"/>
  <def:Origin Type="OTHER"/>
</ItemDef>
<ItemDef OID="IT.TS.TSVAL" Name="TSVAL" DataType="text"  Length="151"  SASFieldName="TSVAL"><Description> <TranslatedText xml:lang="en">Parameter Value</TranslatedText> </Description>
  <def:Origin Type="OTHER"/>
<def:ValueListRef ValueListOID="VL.TS.TSVAL"/></ItemDef>
<ItemDef OID="IT.TS.TSVALNF" Name="TSVALNF" DataType="text"  Length="7"  SASFieldName="TSVALNF"><Description> <TranslatedText xml:lang="en">Parameter Null Flavor</TranslatedText> </Description>
  <CodeListRef CodeListOID="NULLFLAV"/>
  <def:Origin Type="OTHER"/>
</ItemDef>
<ItemDef OID="IT.SUPPBW.STUDYID" Name="STUDYID" DataType="text"  Length="7"  SASFieldName="STUDYID"><Description> <TranslatedText xml:lang="en">Study Identifier</TranslatedText> </Description>
  <def:Origin Type="OTHER"/>
</ItemDef>
<ItemDef OID="IT.SUPPBW.RDOMAIN" Name="RDOMAIN" DataType="text"  Length="2"  SASFieldName="RDOMAIN"><Description> <TranslatedText xml:lang="en">Related Domain Abbreviation</TranslatedText> </Description>
  <CodeListRef CodeListOID="SDOMAIN"/>
  <def:Origin Type="OTHER"/>
</ItemDef>
<ItemDef OID="IT.SUPPBW.USUBJID" Name="USUBJID" DataType="text"  Length="13"  SASFieldName="USUBJID"><Description> <TranslatedText xml:lang="en">Unique Subject Identifier</TranslatedText> </Description>
  <def:Origin Type="OTHER"/>
</ItemDef>
<ItemDef OID="IT.SUPPBW.IDVAR" Name="IDVAR" DataType="text"  Length="5"  SASFieldName="IDVAR"><Description> <TranslatedText xml:lang="en">Identifying Variable</TranslatedText> </Description>
  <def:Origin Type="OTHER"/>
</ItemDef>
<ItemDef OID="IT.SUPPBW.IDVARVAL" Name="IDVARVAL" DataType="text"  Length="2"  SASFieldName="IDVARVAL"><Description> <TranslatedText xml:lang="en">Identifying Variable Value</TranslatedText> </Description>
  <def:Origin Type="OTHER"/>
</ItemDef>
<ItemDef OID="IT.SUPPBW.QNAM" Name="QNAM" DataType="text"  Length="8"  SASFieldName="QNAM"><Description> <TranslatedText xml:lang="en">Qualifier Variable Name</TranslatedText> </Description>
  <def:Origin Type="OTHER"/>
</ItemDef>
<ItemDef OID="IT.SUPPBW.QLABEL" Name="QLABEL" DataType="text"  Length="12"  SASFieldName="QLABEL"><Description> <TranslatedText xml:lang="en">Qualifier Variable Label</TranslatedText> </Description>
  <def:Origin Type="OTHER"/>
</ItemDef>
<ItemDef OID="IT.SUPPBW.QVAL" Name="QVAL" DataType="text"  Length="7"  SASFieldName="QVAL"><Description> <TranslatedText xml:lang="en">Data Value</TranslatedText> </Description>
  <def:Origin Type="OTHER"/>
<def:ValueListRef ValueListOID="VL.SUPPBW.QVAL"/></ItemDef>
<ItemDef OID="IT.SUPPBW.QORIG" Name="QORIG" DataType="text"  Length="9"  SASFieldName="QORIG"><Description> <TranslatedText xml:lang="en">Origin</TranslatedText> </Description>
  <def:Origin Type="OTHER"/>
</ItemDef>
<ItemDef OID="IT.SUPPBG.STUDYID" Name="STUDYID" DataType="text"  Length="7"  SASFieldName="STUDYID"><Description> <TranslatedText xml:lang="en">Study Identifier</TranslatedText> </Description>
  <def:Origin Type="OTHER"/>
</ItemDef>
<ItemDef OID="IT.SUPPBG.RDOMAIN" Name="RDOMAIN" DataType="text"  Length="2"  SASFieldName="RDOMAIN"><Description> <TranslatedText xml:lang="en">Related Domain Abbreviation</TranslatedText> </Description>
  <CodeListRef CodeListOID="SDOMAIN"/>
  <def:Origin Type="OTHER"/>
</ItemDef>
<ItemDef OID="IT.SUPPBG.USUBJID" Name="USUBJID" DataType="text"  Length="13"  SASFieldName="USUBJID"><Description> <TranslatedText xml:lang="en">Unique Subject Identifier</TranslatedText> </Description>
  <def:Origin Type="OTHER"/>
</ItemDef>
<ItemDef OID="IT.SUPPBG.IDVAR" Name="IDVAR" DataType="text"  Length="5"  SASFieldName="IDVAR"><Description> <TranslatedText xml:lang="en">Identifying Variable</TranslatedText> </Description>
  <def:Origin Type="OTHER"/>
</ItemDef>
<ItemDef OID="IT.SUPPBG.IDVARVAL" Name="IDVARVAL" DataType="text"  Length="2"  SASFieldName="IDVARVAL"><Description> <TranslatedText xml:lang="en">Identifying Variable Value</TranslatedText> </Description>
  <def:Origin Type="OTHER"/>
</ItemDef>
<ItemDef OID="IT.SUPPBG.QNAM" Name="QNAM" DataType="text"  Length="8"  SASFieldName="QNAM"><Description> <TranslatedText xml:lang="en">Qualifier Variable Name</TranslatedText> </Description>
  <def:Origin Type="OTHER"/>
</ItemDef>
<ItemDef OID="IT.SUPPBG.QLABEL" Name="QLABEL" DataType="text"  Length="18"  SASFieldName="QLABEL"><Description> <TranslatedText xml:lang="en">Qualifier Variable Label</TranslatedText> </Description>
  <def:Origin Type="OTHER"/>
</ItemDef>
<ItemDef OID="IT.SUPPBG.QVAL" Name="QVAL" DataType="text"  Length="7"  SASFieldName="QVAL"><Description> <TranslatedText xml:lang="en">Data Value</TranslatedText> </Description>
  <def:Origin Type="OTHER"/>
<def:ValueListRef ValueListOID="VL.SUPPBG.QVAL"/></ItemDef>
<ItemDef OID="IT.SUPPBG.QORIG" Name="QORIG" DataType="text"  Length="9"  SASFieldName="QORIG"><Description> <TranslatedText xml:lang="en">Origin</TranslatedText> </Description>
  <def:Origin Type="OTHER"/>
</ItemDef>
<ItemDef OID="IT.SUPPCL.STUDYID" Name="STUDYID" DataType="text"  Length="7"  SASFieldName="STUDYID"><Description> <TranslatedText xml:lang="en">Study Identifier</TranslatedText> </Description>
  <def:Origin Type="OTHER"/>
</ItemDef>
<ItemDef OID="IT.SUPPCL.RDOMAIN" Name="RDOMAIN" DataType="text"  Length="2"  SASFieldName="RDOMAIN"><Description> <TranslatedText xml:lang="en">Related Domain Abbreviation</TranslatedText> </Description>
  <CodeListRef CodeListOID="SDOMAIN"/>
  <def:Origin Type="OTHER"/>
</ItemDef>
<ItemDef OID="IT.SUPPCL.USUBJID" Name="USUBJID" DataType="text"  Length="13"  SASFieldName="USUBJID"><Description> <TranslatedText xml:lang="en">Unique Subject Identifier</TranslatedText> </Description>
  <def:Origin Type="OTHER"/>
</ItemDef>
<ItemDef OID="IT.SUPPCL.IDVAR" Name="IDVAR" DataType="text"  Length="5"  SASFieldName="IDVAR"><Description> <TranslatedText xml:lang="en">Identifying Variable</TranslatedText> </Description>
  <def:Origin Type="OTHER"/>
</ItemDef>
<ItemDef OID="IT.SUPPCL.IDVARVAL" Name="IDVARVAL" DataType="text"  Length="2"  SASFieldName="IDVARVAL"><Description> <TranslatedText xml:lang="en">Identifying Variable Value</TranslatedText> </Description>
  <def:Origin Type="OTHER"/>
</ItemDef>
<ItemDef OID="IT.SUPPCL.QNAM" Name="QNAM" DataType="text"  Length="8"  SASFieldName="QNAM"><Description> <TranslatedText xml:lang="en">Qualifier Variable Name</TranslatedText> </Description>
  <def:Origin Type="OTHER"/>
</ItemDef>
<ItemDef OID="IT.SUPPCL.QLABEL" Name="QLABEL" DataType="text"  Length="12"  SASFieldName="QLABEL"><Description> <TranslatedText xml:lang="en">Qualifier Variable Label</TranslatedText> </Description>
  <def:Origin Type="OTHER"/>
</ItemDef>
<ItemDef OID="IT.SUPPCL.QVAL" Name="QVAL" DataType="text"  Length="7"  SASFieldName="QVAL"><Description> <TranslatedText xml:lang="en">Data Value</TranslatedText> </Description>
  <def:Origin Type="OTHER"/>
<def:ValueListRef ValueListOID="VL.SUPPCL.QVAL"/></ItemDef>
<ItemDef OID="IT.SUPPCL.QORIG" Name="QORIG" DataType="text"  Length="9"  SASFieldName="QORIG"><Description> <TranslatedText xml:lang="en">Origin</TranslatedText> </Description>
  <def:Origin Type="OTHER"/>
</ItemDef>
<ItemDef OID="IT.SUPPDS.STUDYID" Name="STUDYID" DataType="text"  Length="7"  SASFieldName="STUDYID"><Description> <TranslatedText xml:lang="en">Study Identifier</TranslatedText> </Description>
  <def:Origin Type="OTHER"/>
</ItemDef>
<ItemDef OID="IT.SUPPDS.RDOMAIN" Name="RDOMAIN" DataType="text"  Length="2"  SASFieldName="RDOMAIN"><Description> <TranslatedText xml:lang="en">Related Domain Abbreviation</TranslatedText> </Description>
  <CodeListRef CodeListOID="SDOMAIN"/>
  <def:Origin Type="OTHER"/>
</ItemDef>
<ItemDef OID="IT.SUPPDS.USUBJID" Name="USUBJID" DataType="text"  Length="13"  SASFieldName="USUBJID"><Description> <TranslatedText xml:lang="en">Unique Subject Identifier</TranslatedText> </Description>
  <def:Origin Type="OTHER"/>
</ItemDef>
<ItemDef OID="IT.SUPPDS.IDVAR" Name="IDVAR" DataType="text"  Length="5"  SASFieldName="IDVAR"><Description> <TranslatedText xml:lang="en">Identifying Variable</TranslatedText> </Description>
  <def:Origin Type="OTHER"/>
</ItemDef>
<ItemDef OID="IT.SUPPDS.IDVARVAL" Name="IDVARVAL" DataType="text"  Length="1"  SASFieldName="IDVARVAL"><Description> <TranslatedText xml:lang="en">Identifying Variable Value</TranslatedText> </Description>
  <def:Origin Type="OTHER"/>
</ItemDef>
<ItemDef OID="IT.SUPPDS.QNAM" Name="QNAM" DataType="text"  Length="8"  SASFieldName="QNAM"><Description> <TranslatedText xml:lang="en">Qualifier Variable Name</TranslatedText> </Description>
  <def:Origin Type="OTHER"/>
</ItemDef>
<ItemDef OID="IT.SUPPDS.QLABEL" Name="QLABEL" DataType="text"  Length="12"  SASFieldName="QLABEL"><Description> <TranslatedText xml:lang="en">Qualifier Variable Label</TranslatedText> </Description>
  <def:Origin Type="OTHER"/>
</ItemDef>
<ItemDef OID="IT.SUPPDS.QVAL" Name="QVAL" DataType="text"  Length="6"  SASFieldName="QVAL"><Description> <TranslatedText xml:lang="en">Data Value</TranslatedText> </Description>
  <def:Origin Type="OTHER"/>
<def:ValueListRef ValueListOID="VL.SUPPDS.QVAL"/></ItemDef>
<ItemDef OID="IT.SUPPDS.QORIG" Name="QORIG" DataType="text"  Length="9"  SASFieldName="QORIG"><Description> <TranslatedText xml:lang="en">Origin</TranslatedText> </Description>
  <def:Origin Type="OTHER"/>
</ItemDef>
<!-- ******************************************** -->
<!-- Code List Definitions Section                -->
<!-- ******************************************** -->
<CodeList OID="AGEU" Name="Age Unit" DataType="text">
<CodeListItem CodedValue="MONTHS">
  <Decode>
    <TranslatedText xml:lang="en">One of the 12 divisions of a year as determined by a calendar. It corresponds to the unit of time of approximately to one cycle of the moon&apos;s phases, about 30 days or 4 weeks. (NCI)</TranslatedText>
  </Decode>
  <Alias Name="C29846" Context="nci:ExtCodeID"/>
</CodeListItem>
<CodeListItem CodedValue="WEEKS">
  <Decode>
    <TranslatedText xml:lang="en">Any period of seven consecutive days. (NCI)</TranslatedText>
  </Decode>
  <Alias Name="C29844" Context="nci:ExtCodeID"/>
</CodeListItem>
  <Alias Name="C66781" Context="nci:ExtCodeID"/>
</CodeList>
<CodeList OID="BGTEST" Name="Body Weight Gain Test Name" DataType="text">
<CodeListItem CodedValue="Body Weight Gain">
  <Decode>
    <TranslatedText xml:lang="en">A change in overall body weight, relative to the beginning of the collection period.</TranslatedText>
  </Decode>
  <Alias Name="C62754" Context="nci:ExtCodeID"/>
</CodeListItem>
  <Alias Name="C89959" Context="nci:ExtCodeID"/>
</CodeList>
<CodeList OID="BGTESTCD" Name="Body Weight Gain Test Code" DataType="text">
<CodeListItem CodedValue="BWGAIN">
  <Decode>
    <TranslatedText xml:lang="en">A change in overall body weight, relative to the beginning of the collection period.</TranslatedText>
  </Decode>
  <Alias Name="C62754" Context="nci:ExtCodeID"/>
</CodeListItem>
  <Alias Name="C89960" Context="nci:ExtCodeID"/>
</CodeList>
<CodeList OID="BWTEST" Name="Body Weight Test Name" DataType="text">
<CodeListItem CodedValue="Body Weight">
  <Decode>
    <TranslatedText xml:lang="en">The weight of a subject. (NCI)</TranslatedText>
  </Decode>
  <Alias Name="C81328" Context="nci:ExtCodeID"/>
</CodeListItem>
  <Alias Name="C89961" Context="nci:ExtCodeID"/>
</CodeList>
<CodeList OID="BWTESTCD" Name="Body Weight Test Code" DataType="text">
<CodeListItem CodedValue="BW">
  <Decode>
    <TranslatedText xml:lang="en">The weight of a subject. (NCI)</TranslatedText>
  </Decode>
  <Alias Name="C81328" Context="nci:ExtCodeID"/>
</CodeListItem>
  <Alias Name="C89962" Context="nci:ExtCodeID"/>
</CodeList>
<CodeList OID="CLCAT" Name="Category for Clinical Observation" DataType="text">
<CodeListItem CodedValue="CLINICAL SIGNS">
  <Decode>
    <TranslatedText xml:lang="en">Objective evidence of disease perceptible to the examiner (sign) and subjective evidence of disease perceived by the subject (symptom).</TranslatedText>
  </Decode>
  <Alias Name="C100104" Context="nci:ExtCodeID"/>
</CodeListItem>
<CodeListItem CodedValue="PHYSICAL EXAM">
  <Decode>
    <TranslatedText xml:lang="en">A systemic evaluation of the body and its functions using visual inspection, palpation, percussion and auscultation. The purpose is to determine the presence or absence of physical signs of disease or abnormality for an individual&apos;s health assessment.</TranslatedText>
  </Decode>
  <Alias Name="C20989" Context="nci:ExtCodeID"/>
</CodeListItem>
  <Alias Name="C89963" Context="nci:ExtCodeID"/>
</CodeList>
<CodeList OID="CLSCAT" Name="CLSCAT" DataType="text">
<CodeListItem CodedValue="Behavior" def:ExtendedValue="Yes">
  <Decode>
    <TranslatedText xml:lang="en">Observation of animal behavior</TranslatedText>
  </Decode>
</CodeListItem>
<CodeListItem CodedValue="Discharge" def:ExtendedValue="Yes">
  <Decode>
    <TranslatedText xml:lang="en">Secretion observation</TranslatedText>
  </Decode>
</CodeListItem>
<CodeListItem CodedValue="Excretion" def:ExtendedValue="Yes">
  <Decode>
    <TranslatedText xml:lang="en">Observation of animal excretion</TranslatedText>
  </Decode>
</CodeListItem>
<CodeListItem CodedValue="Eye Appearance" def:ExtendedValue="Yes">
  <Decode>
    <TranslatedText xml:lang="en">Macro observation of eyes</TranslatedText>
  </Decode>
</CodeListItem>
<CodeListItem CodedValue="Physical Appearance" def:ExtendedValue="Yes">
  <Decode>
    <TranslatedText xml:lang="en">Observation of animal appearance</TranslatedText>
  </Decode>
</CodeListItem>
<CodeListItem CodedValue="Subjective Objective Assessment Plan" def:ExtendedValue="Yes">
  <Decode>
    <TranslatedText xml:lang="en">Vet Request</TranslatedText>
  </Decode>
</CodeListItem>

</CodeList>
<CodeList OID="CLTEST" Name="CLTEST" DataType="text">
<CodeListItem CodedValue="Clinical Observation" def:ExtendedValue="Yes">
  <Decode>
    <TranslatedText xml:lang="en">An assessment of clinical observations.</TranslatedText>
  </Decode>
</CodeListItem>
<CodeListItem CodedValue="Vet Assessment" def:ExtendedValue="Yes">
  <Decode>
    <TranslatedText xml:lang="en">An assessment by a vet.</TranslatedText>
  </Decode>
</CodeListItem>

</CodeList>
<CodeList OID="CLTESTCD" Name="CLTESTCD" DataType="text">
<CodeListItem CodedValue="CLNOB" def:ExtendedValue="Yes">
  <Decode>
    <TranslatedText xml:lang="en">An assessment of clinical observations.</TranslatedText>
  </Decode>
</CodeListItem>
<CodeListItem CodedValue="VETASMNT" def:ExtendedValue="Yes">
  <Decode>
    <TranslatedText xml:lang="en">An assessment by a vet.</TranslatedText>
  </Decode>
</CodeListItem>

</CodeList>
<CodeList OID="COUNTRY" Name="Country" DataType="text">
<CodeListItem CodedValue="USA">
  <Decode>
    <TranslatedText xml:lang="en">A country in North America, bordering both the North Atlantic Ocean and the North Pacific Ocean, between Canada and Mexico. (NCI)</TranslatedText>
  </Decode>
  <Alias Name="C17234" Context="nci:ExtCodeID"/>
</CodeListItem>
  <Alias Name="C66786" Context="nci:ExtCodeID"/>
</CodeList>
<CodeList OID="CSTATE" Name="Consciousness State" DataType="text">
<CodeListItem CodedValue="CONSCIOUS">
  <Decode>
    <TranslatedText xml:lang="en">A level of awareness that can be described as being alert. (NCI)</TranslatedText>
  </Decode>
  <Alias Name="C88434" Context="nci:ExtCodeID"/>
</CodeListItem>
  <Alias Name="C90018" Context="nci:ExtCodeID"/>
</CodeList>
<CodeList OID="DESIGN" Name="Study Design" DataType="text">
<CodeListItem CodedValue="LATIN SQUARE">
  <Decode>
    <TranslatedText xml:lang="en">A type of crossover study in which the subject receives every treatment during the study. The treatments are administered in a prespecified order in such a way that each subject receives each treatment and each treatment is in each study phase.</TranslatedText>
  </Decode>
  <Alias Name="C90402" Context="nci:ExtCodeID"/>
</CodeListItem>
  <Alias Name="C89967" Context="nci:ExtCodeID"/>
</CodeList>
<CodeList OID="DSDECOD" Name="Standardized Disposition Term" DataType="text">
<CodeListItem CodedValue="REMOVED FROM STUDY ALIVE">
  <Decode>
    <TranslatedText xml:lang="en">An indication that the subject was alive when taken out of the study. (NCI)</TranslatedText>
  </Decode>
  <Alias Name="C90447" Context="nci:ExtCodeID"/>
</CodeListItem>
  <Alias Name="C89968" Context="nci:ExtCodeID"/>
</CodeList>
<CodeList OID="EGCATSND" Name="SEND ECG Category" DataType="text">
<CodeListItem CodedValue="MEASUREMENT">
  <Decode>
    <TranslatedText xml:lang="en">Annotation used to indicate the size or magnitude of something that was determined by comparison to a standard. (NCI)</TranslatedText>
  </Decode>
  <Alias Name="C25209" Context="nci:ExtCodeID"/>
</CodeListItem>
  <Alias Name="C90012" Context="nci:ExtCodeID"/>
</CodeList>
<CodeList OID="EGLEAD" Name="ECG Lead" DataType="text">
<CodeListItem CodedValue="LEAD II">
  <Decode>
    <TranslatedText xml:lang="en">A bipolar electrocardiogram limb lead which records the voltage between the negative electrode on the right thoracic limb and the positive electrode on the left pelvic limb. (NCI)</TranslatedText>
  </Decode>
  <Alias Name="C90409" Context="nci:ExtCodeID"/>
</CodeListItem>
  <Alias Name="C90013" Context="nci:ExtCodeID"/>
</CodeList>
<CodeList OID="EGMETHOD" Name="ECG Test Method" DataType="text">
<CodeListItem CodedValue="CONTINUOUS ECG FOR NON-HUMAN SPECIES USING IMPLANTED LEADS" def:ExtendedValue="Yes">
  <Decode>
    <TranslatedText xml:lang="en">A continuous electrocardiographic (ECG) recording utilizing one or more implanted leads in a non-human species.</TranslatedText>
  </Decode>
</CodeListItem>
  <Alias Name="C71151" Context="nci:ExtCodeID"/>
</CodeList>
<CodeList OID="EGSTRESC" Name="ECG Result" DataType="text">
<CodeListItem CodedValue="EGSTRESC" def:ExtendedValue="Yes">
  <Decode>
    <TranslatedText xml:lang="en">null</TranslatedText>
  </Decode>
</CodeListItem>
  <Alias Name="C71150" Context="nci:ExtCodeID"/>
</CodeList>
<CodeList OID="EGTEST" Name="ECG Test Name" DataType="text">
<CodeListItem CodedValue="ECG Mean Heart Rate">
  <Decode>
    <TranslatedText xml:lang="en">An electrocardiographic measurement of the average rate of depolarization of a specific region of the heart during an interval of time, usually expressed in beats per minute. Unless otherwise specified, this is usually the mean ventricular rate.</TranslatedText>
  </Decode>
  <Alias Name="C119259" Context="nci:ExtCodeID"/>
</CodeListItem>
<CodeListItem CodedValue="QT Interval, Aggregate">
  <Decode>
    <TranslatedText xml:lang="en">An aggregate QT value based on the measurement of QT intervals from multiple beats within a single ECG. The method of aggregation, which can vary, is typically a measure of central tendency such as the mean.</TranslatedText>
  </Decode>
  <Alias Name="C117783" Context="nci:ExtCodeID"/>
</CodeListItem>
<CodeListItem CodedValue="QTcL Interval, Aggregate">
  <Decode>
    <TranslatedText xml:lang="en">A QT aggregate interval corrected for heart rate using a linear correction formula.</TranslatedText>
  </Decode>
  <Alias Name="C123448" Context="nci:ExtCodeID"/>
</CodeListItem>
<CodeListItem CodedValue="RR Interval, Aggregate">
  <Decode>
    <TranslatedText xml:lang="en">An aggregate RR value based on the measurement of RR intervals from multiple beats within a single ECG. The method of aggregation, which can vary, is typically a measure of central tendency such as the mean.</TranslatedText>
  </Decode>
  <Alias Name="C117791" Context="nci:ExtCodeID"/>
</CodeListItem>
  <Alias Name="C71152" Context="nci:ExtCodeID"/>
</CodeList>
<CodeList OID="EGTESTCD" Name="ECG Test Code" DataType="text">
<CodeListItem CodedValue="EGHRMN">
  <Decode>
    <TranslatedText xml:lang="en">An electrocardiographic measurement of the average rate of depolarization of a specific region of the heart during an interval of time, usually expressed in beats per minute. Unless otherwise specified, this is usually the mean ventricular rate.</TranslatedText>
  </Decode>
  <Alias Name="C119259" Context="nci:ExtCodeID"/>
</CodeListItem>
<CodeListItem CodedValue="QTAG">
  <Decode>
    <TranslatedText xml:lang="en">An aggregate QT value based on the measurement of QT intervals from multiple beats within a single ECG. The method of aggregation, which can vary, is typically a measure of central tendency such as the mean.</TranslatedText>
  </Decode>
  <Alias Name="C117783" Context="nci:ExtCodeID"/>
</CodeListItem>
<CodeListItem CodedValue="QTCLAG">
  <Decode>
    <TranslatedText xml:lang="en">A QT aggregate interval corrected for heart rate using a linear correction formula.</TranslatedText>
  </Decode>
  <Alias Name="C123448" Context="nci:ExtCodeID"/>
</CodeListItem>
<CodeListItem CodedValue="RRAG">
  <Decode>
    <TranslatedText xml:lang="en">An aggregate RR value based on the measurement of RR intervals from multiple beats within a single ECG. The method of aggregation, which can vary, is typically a measure of central tendency such as the mean.</TranslatedText>
  </Decode>
  <Alias Name="C117791" Context="nci:ExtCodeID"/>
</CodeListItem>
  <Alias Name="C71153" Context="nci:ExtCodeID"/>
</CodeList>
<CodeList OID="FREQ" Name="Frequency" DataType="text">
<CodeListItem CodedValue="ONCE">
  <Decode>
    <TranslatedText xml:lang="en">One time.</TranslatedText>
  </Decode>
  <Alias Name="C64576" Context="nci:ExtCodeID"/>
</CodeListItem>
  <Alias Name="C71113" Context="nci:ExtCodeID"/>
</CodeList>
<CodeList OID="FRM" Name="Pharmaceutical Dosage Form" DataType="text">
<CodeListItem CodedValue="SUSPENSION">
  <Decode>
    <TranslatedText xml:lang="en">A liquid dosage form that contains solid particles dispersed in a liquid vehicle. Note: A liquid is pourable; it flows and conforms to its container at room temperature. It displays Newtonian or pseudoplastic flow behavior.</TranslatedText>
  </Decode>
  <Alias Name="C42994" Context="nci:ExtCodeID"/>
</CodeListItem>
  <Alias Name="C66726" Context="nci:ExtCodeID"/>
</CodeList>
<CodeList OID="NULLFLAV" Name="Null Flavor Reason" DataType="text">
<CodeListItem CodedValue="UNKNOWN">
  <Decode>
    <TranslatedText xml:lang="en">Not known, not observed, not recorded, or refused. (NCI)</TranslatedText>
  </Decode>
  <Alias Name="C17998" Context="nci:ExtCodeID"/>
</CodeListItem>
  <Alias Name="C150810" Context="nci:ExtCodeID"/>
</CodeList>
<CodeList OID="NY" Name="No Yes Response" DataType="text">
<CodeListItem CodedValue="Y">
  <Decode>
    <TranslatedText xml:lang="en">The affirmative response to a question. (NCI)</TranslatedText>
  </Decode>
  <Alias Name="C49488" Context="nci:ExtCodeID"/>
</CodeListItem>
  <Alias Name="C66742" Context="nci:ExtCodeID"/>
</CodeList>
<CodeList OID="PKUNIT" Name="PK Units of Measure" DataType="text">
<CodeListItem CodedValue="ng/mL">
  <Decode>
    <TranslatedText xml:lang="en">A unit of concentration or mass density equal to one nanogram of substance per milliliter of solution or one microgram of substance per liter of solution.</TranslatedText>
  </Decode>
  <Alias Name="C67306" Context="nci:ExtCodeID"/>
</CodeListItem>
  <Alias Name="C85494" Context="nci:ExtCodeID"/>
</CodeList>
<CodeList OID="POSITION" Name="Position" DataType="text">
<CodeListItem CodedValue="UNCONSTRAINED">
  <Decode>
    <TranslatedText xml:lang="en">The ability to move body parts and limbs without physical restriction. (NCI)</TranslatedText>
  </Decode>
  <Alias Name="C90480" Context="nci:ExtCodeID"/>
</CodeListItem>
  <Alias Name="C71148" Context="nci:ExtCodeID"/>
</CodeList>
<CodeList OID="ROUTE" Name="Route of Administration Response" DataType="text">
<CodeListItem CodedValue="ORAL GAVAGE">
  <Decode>
    <TranslatedText xml:lang="en">Administration through the mouth and into the stomach, usually by means of a tube. (NCI)</TranslatedText>
  </Decode>
  <Alias Name="C78374" Context="nci:ExtCodeID"/>
</CodeListItem>
  <Alias Name="C66729" Context="nci:ExtCodeID"/>
</CodeList>
<CodeList OID="SCVTST" Name="SEND Cardiovascular Test Name" DataType="text">
<CodeListItem CodedValue="Diastolic Blood Pressure">
  <Decode>
    <TranslatedText xml:lang="en">The minimum blood pressure in the systemic arterial circulation during the cardiac cycle.</TranslatedText>
  </Decode>
  <Alias Name="C25299" Context="nci:ExtCodeID"/>
</CodeListItem>
<CodeListItem CodedValue="Heart Rate">
  <Decode>
    <TranslatedText xml:lang="en">The number of heartbeats per unit of time, usually expressed as beats per minute. (NCI)</TranslatedText>
  </Decode>
  <Alias Name="C49677" Context="nci:ExtCodeID"/>
</CodeListItem>
<CodeListItem CodedValue="Mean Arterial Pressure">
  <Decode>
    <TranslatedText xml:lang="en">The mean pressure of the blood within the arterial circulation. The arterial pressure may be directly measured by insertion of an intra-arterial catheter connected to a transducer. The mean arterial pressure (MAP) can be calculated by subsequent analysis of the waveform. MAP can be approximated without an invasive procedure using the following formula: diastolic pressure plus 1/3 of the pulse pressure, where pulse pressure is systolic pressure - diastolic pressure. (NCI)</TranslatedText>
  </Decode>
  <Alias Name="C49679" Context="nci:ExtCodeID"/>
</CodeListItem>
<CodeListItem CodedValue="Pulse Pressure">
  <Decode>
    <TranslatedText xml:lang="en">The change in systolic to diastolic pressure which produces a pulse.</TranslatedText>
  </Decode>
  <Alias Name="C100945" Context="nci:ExtCodeID"/>
</CodeListItem>
<CodeListItem CodedValue="Systolic Blood Pressure">
  <Decode>
    <TranslatedText xml:lang="en">The maximum blood pressure in the systemic arterial circulation during the cardiac cycle.</TranslatedText>
  </Decode>
  <Alias Name="C25298" Context="nci:ExtCodeID"/>
</CodeListItem>
<CodeListItem CodedValue="dP/dt Average">
  <Decode>
    <TranslatedText xml:lang="en">The average rate of pressure change over time within the left ventricle (systole).</TranslatedText>
  </Decode>
  <Alias Name="C120915" Context="nci:ExtCodeID"/>
</CodeListItem>
  <Alias Name="C120533" Context="nci:ExtCodeID"/>
</CodeList>
<CodeList OID="SCVTSTCD" Name="SEND Cardiovascular Test Code" DataType="text">
<CodeListItem CodedValue="DIABP">
  <Decode>
    <TranslatedText xml:lang="en">The minimum blood pressure in the systemic arterial circulation during the cardiac cycle.</TranslatedText>
  </Decode>
  <Alias Name="C25299" Context="nci:ExtCodeID"/>
</CodeListItem>
<CodeListItem CodedValue="DPDTAVG">
  <Decode>
    <TranslatedText xml:lang="en">The average rate of pressure change over time within the left ventricle (systole).</TranslatedText>
  </Decode>
  <Alias Name="C120915" Context="nci:ExtCodeID"/>
</CodeListItem>
<CodeListItem CodedValue="HR">
  <Decode>
    <TranslatedText xml:lang="en">The number of heartbeats per unit of time, usually expressed as beats per minute. (NCI)</TranslatedText>
  </Decode>
  <Alias Name="C49677" Context="nci:ExtCodeID"/>
</CodeListItem>
<CodeListItem CodedValue="MAP">
  <Decode>
    <TranslatedText xml:lang="en">The mean pressure of the blood within the arterial circulation. The arterial pressure may be directly measured by insertion of an intra-arterial catheter connected to a transducer. The mean arterial pressure (MAP) can be calculated by subsequent analysis of the waveform. MAP can be approximated without an invasive procedure using the following formula: diastolic pressure plus 1/3 of the pulse pressure, where pulse pressure is systolic pressure - diastolic pressure. (NCI)</TranslatedText>
  </Decode>
  <Alias Name="C49679" Context="nci:ExtCodeID"/>
</CodeListItem>
<CodeListItem CodedValue="PULSEPR">
  <Decode>
    <TranslatedText xml:lang="en">The change in systolic to diastolic pressure which produces a pulse.</TranslatedText>
  </Decode>
  <Alias Name="C100945" Context="nci:ExtCodeID"/>
</CodeListItem>
<CodeListItem CodedValue="SYSBP">
  <Decode>
    <TranslatedText xml:lang="en">The maximum blood pressure in the systemic arterial circulation during the cardiac cycle.</TranslatedText>
  </Decode>
  <Alias Name="C25298" Context="nci:ExtCodeID"/>
</CodeListItem>
  <Alias Name="C120532" Context="nci:ExtCodeID"/>
</CodeList>
<CodeList OID="SDOMAIN" Name="SEND Domain Abbreviation" DataType="text">
<CodeListItem CodedValue="BG">
  <Decode>
    <TranslatedText xml:lang="en">Body weight gain is the actual difference between two body weight measurements for any given interval for a subject. This is most commonly shown as the difference between two consecutive body weight measurements.</TranslatedText>
  </Decode>
  <Alias Name="C95083" Context="nci:ExtCodeID"/>
</CodeListItem>
<CodeListItem CodedValue="BW">
  <Decode>
    <TranslatedText xml:lang="en">This domain captures body weights collected for subjects during the study and at the end of the study (terminal body weights).</TranslatedText>
  </Decode>
  <Alias Name="C95085" Context="nci:ExtCodeID"/>
</CodeListItem>
<CodeListItem CodedValue="CL">
  <Decode>
    <TranslatedText xml:lang="en">This domain captures clinical sign information including ophthalmology, physical examination, and dermal examination collected in life while executing the study.</TranslatedText>
  </Decode>
  <Alias Name="C95086" Context="nci:ExtCodeID"/>
</CodeListItem>
<CodeListItem CodedValue="CO">
  <Decode>
    <TranslatedText xml:lang="en">A special-purpose domain that contains comments that may be collected alongside other data.</TranslatedText>
  </Decode>
  <Alias Name="C49569" Context="nci:ExtCodeID"/>
</CodeListItem>
<CodeListItem CodedValue="CV">
  <Decode>
    <TranslatedText xml:lang="en">A findings domain that contains physiological and morphological findings related to the cardiovascular system, including the heart, blood vessels and lymphatic vessels.</TranslatedText>
  </Decode>
  <Alias Name="C102605" Context="nci:ExtCodeID"/>
</CodeListItem>
<CodeListItem CodedValue="DM">
  <Decode>
    <TranslatedText xml:lang="en">A special-purpose domain that includes a set of essential standard variables that describe each subject in a clinical study. It is the parent domain for all other observations for human clinical subjects.</TranslatedText>
  </Decode>
  <Alias Name="C49572" Context="nci:ExtCodeID"/>
</CodeListItem>
<CodeListItem CodedValue="DS">
  <Decode>
    <TranslatedText xml:lang="en">An events domain that contains information encompassing and representing data related to subject disposition.</TranslatedText>
  </Decode>
  <Alias Name="C49576" Context="nci:ExtCodeID"/>
</CodeListItem>
<CodeListItem CodedValue="EG">
  <Decode>
    <TranslatedText xml:lang="en">A findings domain that contains ECG data, including position of the subject, method of evaluation, all cycle measurements and all findings from the ECG including an overall interpretation if collected or derived.</TranslatedText>
  </Decode>
  <Alias Name="C49626" Context="nci:ExtCodeID"/>
</CodeListItem>
<CodeListItem CodedValue="EX">
  <Decode>
    <TranslatedText xml:lang="en">An interventions domain that contains the details of a subject&apos;s exposure to protocol-specified study treatment. Study treatment may be any intervention that is prospectively defined as a test material within a study, and is typically but not always supplied to the subject.</TranslatedText>
  </Decode>
  <Alias Name="C49587" Context="nci:ExtCodeID"/>
</CodeListItem>
<CodeListItem CodedValue="PC">
  <Decode>
    <TranslatedText xml:lang="en">A findings domain that contains concentrations of drugs or metabolites in fluids or tissues as a function of time.</TranslatedText>
  </Decode>
  <Alias Name="C49606" Context="nci:ExtCodeID"/>
</CodeListItem>
<CodeListItem CodedValue="SE">
  <Decode>
    <TranslatedText xml:lang="en">A special-purpose domain that contains the actual order of elements followed by the subject, together with the start date/time and end date/time for each element.</TranslatedText>
  </Decode>
  <Alias Name="C49616" Context="nci:ExtCodeID"/>
</CodeListItem>
<CodeListItem CodedValue="TA">
  <Decode>
    <TranslatedText xml:lang="en">A trial design domain that contains each planned arm in the trial.</TranslatedText>
  </Decode>
  <Alias Name="C49618" Context="nci:ExtCodeID"/>
</CodeListItem>
<CodeListItem CodedValue="TE">
  <Decode>
    <TranslatedText xml:lang="en">A trial design domain that contains the element code that is unique for each element, the element description, and the rules for starting and ending an element.</TranslatedText>
  </Decode>
  <Alias Name="C49619" Context="nci:ExtCodeID"/>
</CodeListItem>
<CodeListItem CodedValue="TS">
  <Decode>
    <TranslatedText xml:lang="en">A trial design domain that contains one record for each trial summary characteristic. This domain is not subject oriented.</TranslatedText>
  </Decode>
  <Alias Name="C53483" Context="nci:ExtCodeID"/>
</CodeListItem>
<CodeListItem CodedValue="TX">
  <Decode>
    <TranslatedText xml:lang="en">A trial design domain that contains one record for each trial set characteristic including experimental factors, treatment factors, inherent characteristics, or distinct sponsor designations. This domain is not subject oriented.</TranslatedText>
  </Decode>
  <Alias Name="C95103" Context="nci:ExtCodeID"/>
</CodeListItem>
  <Alias Name="C111113" Context="nci:ExtCodeID"/>
</CodeList>
<CodeList OID="SEX" Name="Sex" DataType="text">
<CodeListItem CodedValue="M">
  <Decode>
    <TranslatedText xml:lang="en">A person who belongs to the sex that normally produces sperm. The term is used to indicate biological sex distinctions, cultural gender role distinctions, or both. (NCI)</TranslatedText>
  </Decode>
  <Alias Name="C20197" Context="nci:ExtCodeID"/>
</CodeListItem>
  <Alias Name="C66731" Context="nci:ExtCodeID"/>
</CodeList>
<CodeList OID="SEXPOP" Name="Sex of Participants Response" DataType="text">
<CodeListItem CodedValue="M">
  <Decode>
    <TranslatedText xml:lang="en">A person who belongs to the sex that normally produces sperm. The term is used to indicate biological sex distinctions, cultural gender role distinctions, or both. (NCI)</TranslatedText>
  </Decode>
  <Alias Name="C20197" Context="nci:ExtCodeID"/>
</CodeListItem>
  <Alias Name="C66732" Context="nci:ExtCodeID"/>
</CodeList>
<CodeList OID="SNDIGVER" Name="SEND Implementation Guide Version" DataType="text">
<CodeListItem CodedValue="SEND IMPLEMENTATION GUIDE VERSION 3.1">
  <Decode>
    <TranslatedText xml:lang="en">The 3.1 version of the standard for exchange of nonclinical data (SEND) implementation guide. (NCI)</TranslatedText>
  </Decode>
  <Alias Name="C120925" Context="nci:ExtCodeID"/>
</CodeListItem>
  <Alias Name="C89982" Context="nci:ExtCodeID"/>
</CodeList>
<CodeList OID="SPEC" Name="Specimen" DataType="text">
<CodeListItem CodedValue="PLASMA">
  <Decode>
    <TranslatedText xml:lang="en">The fluid (acellular) portion of the circulating blood with retained clotting components.</TranslatedText>
  </Decode>
  <Alias Name="C13356" Context="nci:ExtCodeID"/>
</CodeListItem>
  <Alias Name="C77529" Context="nci:ExtCodeID"/>
</CodeList>
<CodeList OID="SPECIES" Name="Species" DataType="text">
<CodeListItem CodedValue="DOG">
  <Decode>
    <TranslatedText xml:lang="en">The domestic dog, Canis familiaris. (NCI)</TranslatedText>
  </Decode>
  <Alias Name="C14201" Context="nci:ExtCodeID"/>
</CodeListItem>
  <Alias Name="C77808" Context="nci:ExtCodeID"/>
</CodeList>
<CodeList OID="SSTYP" Name="SEND Study Type" DataType="text">
<CodeListItem CodedValue="CARDIOVASCULAR PHARMACOLOGY">
  <Decode>
    <TranslatedText xml:lang="en">The study of the effects of drugs upon the heart or circulatory system.</TranslatedText>
  </Decode>
  <Alias Name="C18079" Context="nci:ExtCodeID"/>
</CodeListItem>
  <Alias Name="C90003" Context="nci:ExtCodeID"/>
</CodeList>
<CodeList OID="STCAT" Name="Study Category" DataType="text">
<CodeListItem CodedValue="SP">
  <Decode>
    <TranslatedText xml:lang="en">A branch of pharmacology that investigates the potential undesirable pharmacodynamic effects of a substance on physiological functions in relation to exposure in the therapeutic range and above. (safetypharmacology.org) (NCI)</TranslatedText>
  </Decode>
  <Alias Name="C90452" Context="nci:ExtCodeID"/>
</CodeListItem>
  <Alias Name="C90002" Context="nci:ExtCodeID"/>
</CodeList>
<CodeList OID="STRAIN" Name="Strain/Substrain" DataType="text">
<CodeListItem CodedValue="BEAGLE">
  <Decode>
    <TranslatedText xml:lang="en">The Beagle is a hardy, sturdy squarely-built, small hound, with a short coat in tri-color, red and white, orange and white, or lemon and white. The ears are long, wide and pendant. There are two height classes, 13-15 inches (33-38 cm) and under 13 inches (33 cm). Weight: 20-25 pounds (9-11 kg).</TranslatedText>
  </Decode>
  <Alias Name="C53897" Context="nci:ExtCodeID"/>
</CodeListItem>
  <Alias Name="C77530" Context="nci:ExtCodeID"/>
</CodeList>

<CodeList OID="STSPRM" Name="SEND Trial Summary Parameter Test Name" DataType="text">
<CodeListItem CodedValue="Age">
  <Decode>
    <TranslatedText xml:lang="en">How long something has existed; elapsed time since birth. (NCI)</TranslatedText>
  </Decode>
  <Alias Name="C25150" Context="nci:ExtCodeID"/>
</CodeListItem>
<CodeListItem CodedValue="Age Unit">
  <Decode>
    <TranslatedText xml:lang="en">Those units of time that are routinely used to express the age of a person. (NCI)</TranslatedText>
  </Decode>
  <Alias Name="C50400" Context="nci:ExtCodeID"/>
</CodeListItem>
<CodeListItem CodedValue="Alternate Study ID">
  <Decode>
    <TranslatedText xml:lang="en">A backup sequence of characters used to identify a study. (NCI)</TranslatedText>
  </Decode>
  <Alias Name="C90354" Context="nci:ExtCodeID"/>
</CodeListItem>
<CodeListItem CodedValue="Arm Code">
  <Decode>
    <TranslatedText xml:lang="en">A character or string that represents a planned arm of a trial or study.</TranslatedText>
  </Decode>
  <Alias Name="C83216" Context="nci:ExtCodeID"/>
</CodeListItem>
<CodeListItem CodedValue="Control Type">
  <Decode>
    <TranslatedText xml:lang="en">Comparator against which the study treatment is evaluated.</TranslatedText>
  </Decode>
  <Alias Name="C49647" Context="nci:ExtCodeID"/>
</CodeListItem>
<CodeListItem CodedValue="Dose Level">
  <Decode>
    <TranslatedText xml:lang="en">The amount of drug administered to a patient or test subject at one time or the total quantity administered. [AMA Manual of Style] (CDISC Glossary)</TranslatedText>
  </Decode>
  <Alias Name="C25488" Context="nci:ExtCodeID"/>
</CodeListItem>
<CodeListItem CodedValue="Dose Units">
  <Decode>
    <TranslatedText xml:lang="en">The unit of measure for the dosage form.</TranslatedText>
  </Decode>
  <Alias Name="C73558" Context="nci:ExtCodeID"/>
</CodeListItem>
<CodeListItem CodedValue="Dosing Duration">
  <Decode>
    <TranslatedText xml:lang="en">The interval of time over which a course of doses occurs. (NCI)</TranslatedText>
  </Decode>
  <Alias Name="C90378" Context="nci:ExtCodeID"/>
</CodeListItem>
<CodeListItem CodedValue="Experimental End Date">
  <Decode>
    <TranslatedText xml:lang="en">Experimental completion date means the last date on which data are collected from the study. (OECD)</TranslatedText>
  </Decode>
  <Alias Name="C90382" Context="nci:ExtCodeID"/>
</CodeListItem>
<CodeListItem CodedValue="Experimental Start Date">
  <Decode>
    <TranslatedText xml:lang="en">Experimental starting date means the date on which the first study specific data are collected. (OECD)</TranslatedText>
  </Decode>
  <Alias Name="C90487" Context="nci:ExtCodeID"/>
</CodeListItem>
<CodeListItem CodedValue="GLP Flag">
  <Decode>
    <TranslatedText xml:lang="en">Indicates whether a study is conducted according to Good Laboratory Practices (GLP).</TranslatedText>
  </Decode>
  <Alias Name="C120944" Context="nci:ExtCodeID"/>
</CodeListItem>
<CodeListItem CodedValue="Good Laboratory Practice Type">
  <Decode>
    <TranslatedText xml:lang="en">A quality system concerned with the organizational process and the conditions under which non-clinical health and environmental safety studies are planned, performed, monitored, recorded, archived and reported. (OECD)</TranslatedText>
  </Decode>
  <Alias Name="C90389" Context="nci:ExtCodeID"/>
</CodeListItem>
<CodeListItem CodedValue="Group Label">
  <Decode>
    <TranslatedText xml:lang="en">Alpha-numeric character(s) assigned to identify a particular collection of subjects possessing common characteristic(s).</TranslatedText>
  </Decode>
  <Alias Name="C90391" Context="nci:ExtCodeID"/>
</CodeListItem>
<CodeListItem CodedValue="Housing Group">
  <Decode>
    <TranslatedText xml:lang="en">A classification of a group of animals based upon their shared living space.</TranslatedText>
  </Decode>
  <Alias Name="C90394" Context="nci:ExtCodeID"/>
</CodeListItem>
<CodeListItem CodedValue="Investigational Therapy or Treatment">
  <Decode>
    <TranslatedText xml:lang="en">The investigational product under study.</TranslatedText>
  </Decode>
  <Alias Name="C41161" Context="nci:ExtCodeID"/>
</CodeListItem>
<CodeListItem CodedValue="Planned Number of Male Subjects">
  <Decode>
    <TranslatedText xml:lang="en">The intended quantity of male subjects.</TranslatedText>
  </Decode>
  <Alias Name="C90438" Context="nci:ExtCodeID"/>
</CodeListItem>
<CodeListItem CodedValue="Planned Number of Subjects">
  <Decode>
    <TranslatedText xml:lang="en">The planned number of subjects to be entered in a nonclinical study.</TranslatedText>
  </Decode>
  <Alias Name="C95106" Context="nci:ExtCodeID"/>
</CodeListItem>
<CodeListItem CodedValue="Primary Treatment CAS Registry Number">
  <Decode>
    <TranslatedText xml:lang="en">The Chemical Abstract Service registry number of the investigational product (test article).</TranslatedText>
  </Decode>
  <Alias Name="C92645" Context="nci:ExtCodeID"/>
</CodeListItem>
<CodeListItem CodedValue="Primary Treatment Unique Ingredient ID">
  <Decode>
    <TranslatedText xml:lang="en">The Unique Ingredient Identifier of the investigational product (test article).</TranslatedText>
  </Decode>
  <Alias Name="C92646" Context="nci:ExtCodeID"/>
</CodeListItem>
<CodeListItem CodedValue="Route of Administration">
  <Decode>
    <TranslatedText xml:lang="en">The course by which a substance is administered in order to reach the site of action in the body.</TranslatedText>
  </Decode>
  <Alias Name="C38114" Context="nci:ExtCodeID"/>
</CodeListItem>
<CodeListItem CodedValue="SEND Controlled Terminology Version">
  <Decode>
    <TranslatedText xml:lang="en">The version of the Standard for the Exchange of Nonclinical Data Controlled Terminology that is being used in the study.</TranslatedText>
  </Decode>
  <Alias Name="C96370" Context="nci:ExtCodeID"/>
</CodeListItem>
<CodeListItem CodedValue="SEND Implementation Guide Version">
  <Decode>
    <TranslatedText xml:lang="en">The version of the Standard for the Exchange of Nonclinical Data Implementation Guide that is being used in the study submission.</TranslatedText>
  </Decode>
  <Alias Name="C90458" Context="nci:ExtCodeID"/>
</CodeListItem>
<CodeListItem CodedValue="Sex of Participants">
  <Decode>
    <TranslatedText xml:lang="en">The specific sex, either male, female, or mixed of the subject group being studied. (NCI)</TranslatedText>
  </Decode>
  <Alias Name="C49696" Context="nci:ExtCodeID"/>
</CodeListItem>
<CodeListItem CodedValue="Species">
  <Decode>
    <TranslatedText xml:lang="en">The common name for an animal used as the test system on a study (e.g., dog, monkey, mouse, rabbit, rat).</TranslatedText>
  </Decode>
  <Alias Name="C96433" Context="nci:ExtCodeID"/>
</CodeListItem>
<CodeListItem CodedValue="Sponsor&apos;s Study Reference ID">
  <Decode>
    <TranslatedText xml:lang="en">The reference identifier by which the study is known to the sponsor. This may be different from the STUDYID if the data were collected under a different identifier in the GLP protocol (e.g., used in a situation where a contract facility performs the study and provides a final report).</TranslatedText>
  </Decode>
  <Alias Name="C135009" Context="nci:ExtCodeID"/>
</CodeListItem>
<CodeListItem CodedValue="Sponsor-Defined Group Code">
  <Decode>
    <TranslatedText xml:lang="en">Alpha-numeric character(s) assigned by the sponsor to identify a particular collection of subjects possessing common characteristic(s).</TranslatedText>
  </Decode>
  <Alias Name="C90456" Context="nci:ExtCodeID"/>
</CodeListItem>
<CodeListItem CodedValue="Sponsoring Organization">
  <Decode>
    <TranslatedText xml:lang="en">The name of the entity that is responsible for the initiation, management, and/or financing of a nonclinical study. (NCI)</TranslatedText>
  </Decode>
  <Alias Name="C129946" Context="nci:ExtCodeID"/>
</CodeListItem>
<CodeListItem CodedValue="Strain/Substrain">
  <Decode>
    <TranslatedText xml:lang="en">The vendor-supplied species/strain/substrain designation for the test system under study. It may combine the species, background strain, substrain, and associated genetic modifications as supplied by the vendor (e.g. FISCHER 344, SPRAGUE-DAWLEY IGS, WISTAR Kyoto, BEAGLE, CYNOMOLGUS, RHESUS and CHIMPANZEE).</TranslatedText>
  </Decode>
  <Alias Name="C96373" Context="nci:ExtCodeID"/>
</CodeListItem>
<CodeListItem CodedValue="Study Category">
  <Decode>
    <TranslatedText xml:lang="en">The classification of the study. (NCI)</TranslatedText>
  </Decode>
  <Alias Name="C90461" Context="nci:ExtCodeID"/>
</CodeListItem>
<CodeListItem CodedValue="Study Design">
  <Decode>
    <TranslatedText xml:lang="en">A plan detailing how a trial or study will be performed in order to represent the phenomenon under examination, to answer the research questions that have been asked, and defining the methods of data analysis. Study design is driven by the research hypothesis being posed, study subject/population/sample available, logistics/resources: technology, support, networking, collaborative support, etc.</TranslatedText>
  </Decode>
  <Alias Name="C95082" Context="nci:ExtCodeID"/>
</CodeListItem>
<CodeListItem CodedValue="Study Director">
  <Decode>
    <TranslatedText xml:lang="en">The name of the person who has overall responsibility for the technical conduct of a study, as well as for the interpretation, analysis, documentation and reporting of results, and represents the single point of study control. (FDA)</TranslatedText>
  </Decode>
  <Alias Name="C129944" Context="nci:ExtCodeID"/>
</CodeListItem>
<CodeListItem CodedValue="Study Length">
  <Decode>
    <TranslatedText xml:lang="en">The anticipated length of a nonclinical study measured as a unit of time. (NCI)</TranslatedText>
  </Decode>
  <Alias Name="C95105" Context="nci:ExtCodeID"/>
</CodeListItem>
<CodeListItem CodedValue="Study Start Date">
  <Decode>
    <TranslatedText xml:lang="en">The date on which the protocol is signed by the study director. Also known as Study Initiation Date. (FDA)</TranslatedText>
  </Decode>
  <Alias Name="C99157" Context="nci:ExtCodeID"/>
</CodeListItem>
<CodeListItem CodedValue="Study Title">
  <Decode>
    <TranslatedText xml:lang="en">The name of a nonclinical study.</TranslatedText>
  </Decode>
  <Alias Name="C95108" Context="nci:ExtCodeID"/>
</CodeListItem>
<CodeListItem CodedValue="Study Type">
  <Decode>
    <TranslatedText xml:lang="en">The type of nonclinical study performed e.g. Single Dose, Repeat Dose. (NCI)</TranslatedText>
  </Decode>
  <Alias Name="C92644" Context="nci:ExtCodeID"/>
</CodeListItem>
<CodeListItem CodedValue="Test Facility Country">
  <Decode>
    <TranslatedText xml:lang="en">The country of the place in which a nonclinical laboratory study takes place, i.e., actually uses the test article in a test system. Testing facility includes any establishment required to register under section 510 of the act that conducts nonclinical laboratory studies and any consulting laboratory described in section 704 of the act that conducts such studies. Testing facility encompasses only those operational units that are being or have been used to conduct nonclinical laboratory studies. (FDA)</TranslatedText>
  </Decode>
  <Alias Name="C90467" Context="nci:ExtCodeID"/>
</CodeListItem>
<CodeListItem CodedValue="Test Facility Location">
  <Decode>
    <TranslatedText xml:lang="en">The geographic area of the place in which a nonclinical laboratory study takes place, i.e., actually uses the test article in a test system. Testing facility includes any establishment required to register under section 510 of the act that conducts nonclinical laboratory studies and any consulting laboratory described in section 704 of the act that conducts such studies. Testing facility encompasses only those operational units that are being or have been used to conduct nonclinical laboratory studies. (FDA)</TranslatedText>
  </Decode>
  <Alias Name="C90468" Context="nci:ExtCodeID"/>
</CodeListItem>
<CodeListItem CodedValue="Test Facility Name">
  <Decode>
    <TranslatedText xml:lang="en">The name of the place in which a nonclinical laboratory study takes place, i.e., actually uses the test article in a test system. Testing facility includes any establishment required to register under section 510 of the act that conducts nonclinical laboratory studies and any consulting laboratory described in section 704 of the act that conducts such studies. Testing facility encompasses only those operational units that are being or have been used to conduct nonclinical laboratory studies. (FDA)</TranslatedText>
  </Decode>
  <Alias Name="C90469" Context="nci:ExtCodeID"/>
</CodeListItem>
<CodeListItem CodedValue="Test Subject Supplier">
  <Decode>
    <TranslatedText xml:lang="en">The name of the organization that supplied the test subjects. (NCI)</TranslatedText>
  </Decode>
  <Alias Name="C90473" Context="nci:ExtCodeID"/>
</CodeListItem>
<CodeListItem CodedValue="Time to Terminal Sacrifice">
  <Decode>
    <TranslatedText xml:lang="en">The duration from the start of dosing to the final sacrifice of the subject. (NCI)</TranslatedText>
  </Decode>
  <Alias Name="C90466" Context="nci:ExtCodeID"/>
</CodeListItem>
<CodeListItem CodedValue="Treatment Vehicle">
  <Decode>
    <TranslatedText xml:lang="en">A carrier or inert medium used as a solvent (or diluent) in which a medicinally active agent is formulated and or administered. (NCI)</TranslatedText>
  </Decode>
  <Alias Name="C927" Context="nci:ExtCodeID"/>
</CodeListItem>
  <Alias Name="C90007" Context="nci:ExtCodeID"/>
</CodeList>
<CodeList OID="STSPRMCD" Name="SEND Trial Summary Parameter Test Code" DataType="text">
<CodeListItem CodedValue="AGE">
  <Decode>
    <TranslatedText xml:lang="en">How long something has existed; elapsed time since birth. (NCI)</TranslatedText>
  </Decode>
  <Alias Name="C25150" Context="nci:ExtCodeID"/>
</CodeListItem>
<CodeListItem CodedValue="AGEU">
  <Decode>
    <TranslatedText xml:lang="en">Those units of time that are routinely used to express the age of a person. (NCI)</TranslatedText>
  </Decode>
  <Alias Name="C50400" Context="nci:ExtCodeID"/>
</CodeListItem>
<CodeListItem CodedValue="ALTSTDID">
  <Decode>
    <TranslatedText xml:lang="en">A backup sequence of characters used to identify a study. (NCI)</TranslatedText>
  </Decode>
  <Alias Name="C90354" Context="nci:ExtCodeID"/>
</CodeListItem>
<CodeListItem CodedValue="ARMCD">
  <Decode>
    <TranslatedText xml:lang="en">A character or string that represents a planned arm of a trial or study.</TranslatedText>
  </Decode>
  <Alias Name="C83216" Context="nci:ExtCodeID"/>
</CodeListItem>
<CodeListItem CodedValue="DOSDUR">
  <Decode>
    <TranslatedText xml:lang="en">The interval of time over which a course of doses occurs. (NCI)</TranslatedText>
  </Decode>
  <Alias Name="C90378" Context="nci:ExtCodeID"/>
</CodeListItem>
<CodeListItem CodedValue="EXPENDTC">
  <Decode>
    <TranslatedText xml:lang="en">Experimental completion date means the last date on which data are collected from the study. (OECD)</TranslatedText>
  </Decode>
  <Alias Name="C90382" Context="nci:ExtCodeID"/>
</CodeListItem>
<CodeListItem CodedValue="EXPSTDTC">
  <Decode>
    <TranslatedText xml:lang="en">Experimental starting date means the date on which the first study specific data are collected. (OECD)</TranslatedText>
  </Decode>
  <Alias Name="C90487" Context="nci:ExtCodeID"/>
</CodeListItem>
<CodeListItem CodedValue="GLPFL">
  <Decode>
    <TranslatedText xml:lang="en">Indicates whether a study is conducted according to Good Laboratory Practices (GLP).</TranslatedText>
  </Decode>
  <Alias Name="C120944" Context="nci:ExtCodeID"/>
</CodeListItem>
<CodeListItem CodedValue="GLPTYP">
  <Decode>
    <TranslatedText xml:lang="en">A quality system concerned with the organizational process and the conditions under which non-clinical health and environmental safety studies are planned, performed, monitored, recorded, archived and reported. (OECD)</TranslatedText>
  </Decode>
  <Alias Name="C90389" Context="nci:ExtCodeID"/>
</CodeListItem>
<CodeListItem CodedValue="GRPLBL">
  <Decode>
    <TranslatedText xml:lang="en">Alpha-numeric character(s) assigned to identify a particular collection of subjects possessing common characteristic(s).</TranslatedText>
  </Decode>
  <Alias Name="C90391" Context="nci:ExtCodeID"/>
</CodeListItem>
<CodeListItem CodedValue="HOUSEGRP">
  <Decode>
    <TranslatedText xml:lang="en">A classification of a group of animals based upon their shared living space.</TranslatedText>
  </Decode>
  <Alias Name="C90394" Context="nci:ExtCodeID"/>
</CodeListItem>
<CodeListItem CodedValue="PLANMSUB">
  <Decode>
    <TranslatedText xml:lang="en">The intended quantity of male subjects.</TranslatedText>
  </Decode>
  <Alias Name="C90438" Context="nci:ExtCodeID"/>
</CodeListItem>
<CodeListItem CodedValue="ROUTE">
  <Decode>
    <TranslatedText xml:lang="en">The course by which a substance is administered in order to reach the site of action in the body.</TranslatedText>
  </Decode>
  <Alias Name="C38114" Context="nci:ExtCodeID"/>
</CodeListItem>
<CodeListItem CodedValue="SDESIGN">
  <Decode>
    <TranslatedText xml:lang="en">A plan detailing how a trial or study will be performed in order to represent the phenomenon under examination, to answer the research questions that have been asked, and defining the methods of data analysis. Study design is driven by the research hypothesis being posed, study subject/population/sample available, logistics/resources: technology, support, networking, collaborative support, etc.</TranslatedText>
  </Decode>
  <Alias Name="C95082" Context="nci:ExtCodeID"/>
</CodeListItem>
<CodeListItem CodedValue="SEXPOP">
  <Decode>
    <TranslatedText xml:lang="en">The specific sex, either male, female, or mixed of the subject group being studied. (NCI)</TranslatedText>
  </Decode>
  <Alias Name="C49696" Context="nci:ExtCodeID"/>
</CodeListItem>
<CodeListItem CodedValue="SLENGTH">
  <Decode>
    <TranslatedText xml:lang="en">The anticipated length of a nonclinical study measured as a unit of time. (NCI)</TranslatedText>
  </Decode>
  <Alias Name="C95105" Context="nci:ExtCodeID"/>
</CodeListItem>
<CodeListItem CodedValue="SNDCTVER">
  <Decode>
    <TranslatedText xml:lang="en">The version of the Standard for the Exchange of Nonclinical Data Controlled Terminology that is being used in the study.</TranslatedText>
  </Decode>
  <Alias Name="C96370" Context="nci:ExtCodeID"/>
</CodeListItem>
<CodeListItem CodedValue="SNDIGVER">
  <Decode>
    <TranslatedText xml:lang="en">The version of the Standard for the Exchange of Nonclinical Data Implementation Guide that is being used in the study submission.</TranslatedText>
  </Decode>
  <Alias Name="C90458" Context="nci:ExtCodeID"/>
</CodeListItem>
<CodeListItem CodedValue="SPECIES">
  <Decode>
    <TranslatedText xml:lang="en">The common name for an animal used as the test system on a study (e.g., dog, monkey, mouse, rabbit, rat).</TranslatedText>
  </Decode>
  <Alias Name="C96433" Context="nci:ExtCodeID"/>
</CodeListItem>
<CodeListItem CodedValue="SPGRPCD">
  <Decode>
    <TranslatedText xml:lang="en">Alpha-numeric character(s) assigned by the sponsor to identify a particular collection of subjects possessing common characteristic(s).</TranslatedText>
  </Decode>
  <Alias Name="C90456" Context="nci:ExtCodeID"/>
</CodeListItem>
<CodeListItem CodedValue="SPLANSUB">
  <Decode>
    <TranslatedText xml:lang="en">The planned number of subjects to be entered in a nonclinical study.</TranslatedText>
  </Decode>
  <Alias Name="C95106" Context="nci:ExtCodeID"/>
</CodeListItem>
<CodeListItem CodedValue="SPLRNAM">
  <Decode>
    <TranslatedText xml:lang="en">The name of the organization that supplied the test subjects. (NCI)</TranslatedText>
  </Decode>
  <Alias Name="C90473" Context="nci:ExtCodeID"/>
</CodeListItem>
<CodeListItem CodedValue="SPREFID">
  <Decode>
    <TranslatedText xml:lang="en">The reference identifier by which the study is known to the sponsor. This may be different from the STUDYID if the data were collected under a different identifier in the GLP protocol (e.g., used in a situation where a contract facility performs the study and provides a final report).</TranslatedText>
  </Decode>
  <Alias Name="C135009" Context="nci:ExtCodeID"/>
</CodeListItem>
<CodeListItem CodedValue="SSPONSOR">
  <Decode>
    <TranslatedText xml:lang="en">The name of the entity that is responsible for the initiation, management, and/or financing of a nonclinical study. (NCI)</TranslatedText>
  </Decode>
  <Alias Name="C129946" Context="nci:ExtCodeID"/>
</CodeListItem>
<CodeListItem CodedValue="SSTYP">
  <Decode>
    <TranslatedText xml:lang="en">The type of nonclinical study performed e.g. Single Dose, Repeat Dose. (NCI)</TranslatedText>
  </Decode>
  <Alias Name="C92644" Context="nci:ExtCodeID"/>
</CodeListItem>
<CodeListItem CodedValue="STCAT">
  <Decode>
    <TranslatedText xml:lang="en">The classification of the study. (NCI)</TranslatedText>
  </Decode>
  <Alias Name="C90461" Context="nci:ExtCodeID"/>
</CodeListItem>
<CodeListItem CodedValue="STDIR">
  <Decode>
    <TranslatedText xml:lang="en">The name of the person who has overall responsibility for the technical conduct of a study, as well as for the interpretation, analysis, documentation and reporting of results, and represents the single point of study control. (FDA)</TranslatedText>
  </Decode>
  <Alias Name="C129944" Context="nci:ExtCodeID"/>
</CodeListItem>
<CodeListItem CodedValue="STITLE">
  <Decode>
    <TranslatedText xml:lang="en">The name of a nonclinical study.</TranslatedText>
  </Decode>
  <Alias Name="C95108" Context="nci:ExtCodeID"/>
</CodeListItem>
<CodeListItem CodedValue="STRAIN">
  <Decode>
    <TranslatedText xml:lang="en">The vendor-supplied species/strain/substrain designation for the test system under study. It may combine the species, background strain, substrain, and associated genetic modifications as supplied by the vendor (e.g. FISCHER 344, SPRAGUE-DAWLEY IGS, WISTAR Kyoto, BEAGLE, CYNOMOLGUS, RHESUS and CHIMPANZEE).</TranslatedText>
  </Decode>
  <Alias Name="C96373" Context="nci:ExtCodeID"/>
</CodeListItem>
<CodeListItem CodedValue="STSTDTC">
  <Decode>
    <TranslatedText xml:lang="en">The date on which the protocol is signed by the study director. Also known as Study Initiation Date. (FDA)</TranslatedText>
  </Decode>
  <Alias Name="C99157" Context="nci:ExtCodeID"/>
</CodeListItem>
<CodeListItem CodedValue="TCNTRL">
  <Decode>
    <TranslatedText xml:lang="en">Comparator against which the study treatment is evaluated.</TranslatedText>
  </Decode>
  <Alias Name="C49647" Context="nci:ExtCodeID"/>
</CodeListItem>
<CodeListItem CodedValue="TFCNTRY">
  <Decode>
    <TranslatedText xml:lang="en">The country of the place in which a nonclinical laboratory study takes place, i.e., actually uses the test article in a test system. Testing facility includes any establishment required to register under section 510 of the act that conducts nonclinical laboratory studies and any consulting laboratory described in section 704 of the act that conducts such studies. Testing facility encompasses only those operational units that are being or have been used to conduct nonclinical laboratory studies. (FDA)</TranslatedText>
  </Decode>
  <Alias Name="C90467" Context="nci:ExtCodeID"/>
</CodeListItem>
<CodeListItem CodedValue="TRMSAC">
  <Decode>
    <TranslatedText xml:lang="en">The duration from the start of dosing to the final sacrifice of the subject. (NCI)</TranslatedText>
  </Decode>
  <Alias Name="C90466" Context="nci:ExtCodeID"/>
</CodeListItem>
<CodeListItem CodedValue="TRT">
  <Decode>
    <TranslatedText xml:lang="en">The investigational product under study.</TranslatedText>
  </Decode>
  <Alias Name="C41161" Context="nci:ExtCodeID"/>
</CodeListItem>
<CodeListItem CodedValue="TRTCAS">
  <Decode>
    <TranslatedText xml:lang="en">The Chemical Abstract Service registry number of the investigational product (test article).</TranslatedText>
  </Decode>
  <Alias Name="C92645" Context="nci:ExtCodeID"/>
</CodeListItem>
<CodeListItem CodedValue="TRTDOS">
  <Decode>
    <TranslatedText xml:lang="en">The amount of drug administered to a patient or test subject at one time or the total quantity administered. [AMA Manual of Style] (CDISC Glossary)</TranslatedText>
  </Decode>
  <Alias Name="C25488" Context="nci:ExtCodeID"/>
</CodeListItem>
<CodeListItem CodedValue="TRTDOSU">
  <Decode>
    <TranslatedText xml:lang="en">The unit of measure for the dosage form.</TranslatedText>
  </Decode>
  <Alias Name="C73558" Context="nci:ExtCodeID"/>
</CodeListItem>
<CodeListItem CodedValue="TRTUNII">
  <Decode>
    <TranslatedText xml:lang="en">The Unique Ingredient Identifier of the investigational product (test article).</TranslatedText>
  </Decode>
  <Alias Name="C92646" Context="nci:ExtCodeID"/>
</CodeListItem>
<CodeListItem CodedValue="TRTV">
  <Decode>
    <TranslatedText xml:lang="en">A carrier or inert medium used as a solvent (or diluent) in which a medicinally active agent is formulated and or administered. (NCI)</TranslatedText>
  </Decode>
  <Alias Name="C927" Context="nci:ExtCodeID"/>
</CodeListItem>
<CodeListItem CodedValue="TSTFLOC">
  <Decode>
    <TranslatedText xml:lang="en">The geographic area of the place in which a nonclinical laboratory study takes place, i.e., actually uses the test article in a test system. Testing facility includes any establishment required to register under section 510 of the act that conducts nonclinical laboratory studies and any consulting laboratory described in section 704 of the act that conducts such studies. Testing facility encompasses only those operational units that are being or have been used to conduct nonclinical laboratory studies. (FDA)</TranslatedText>
  </Decode>
  <Alias Name="C90468" Context="nci:ExtCodeID"/>
</CodeListItem>
<CodeListItem CodedValue="TSTFNAM">
  <Decode>
    <TranslatedText xml:lang="en">The name of the place in which a nonclinical laboratory study takes place, i.e., actually uses the test article in a test system. Testing facility includes any establishment required to register under section 510 of the act that conducts nonclinical laboratory studies and any consulting laboratory described in section 704 of the act that conducts such studies. Testing facility encompasses only those operational units that are being or have been used to conduct nonclinical laboratory studies. (FDA)</TranslatedText>
  </Decode>
  <Alias Name="C90469" Context="nci:ExtCodeID"/>
</CodeListItem>
  <Alias Name="C90009" Context="nci:ExtCodeID"/>
</CodeList>
<CodeList OID="UNIT" Name="Unit" DataType="text">
<CodeListItem CodedValue="beats/min">
  <Decode>
    <TranslatedText xml:lang="en">The number of heartbeats measured per minute time. (NCI)</TranslatedText>
  </Decode>
  <Alias Name="C49673" Context="nci:ExtCodeID"/>
</CodeListItem>
<CodeListItem CodedValue="g">
  <Decode>
    <TranslatedText xml:lang="en">A unit of mass equal to one thousandth (1E-3) of a kilogram, the kilogram being the base unit of mass in the International System of Units (SI).</TranslatedText>
  </Decode>
  <Alias Name="C48155" Context="nci:ExtCodeID"/>
</CodeListItem>
<CodeListItem CodedValue="kg">
  <Decode>
    <TranslatedText xml:lang="en">The base unit of mass in the International System of Units (SI) equal to the mass of the international prototype kilogram, a platinum-iridium cylinder in the custody of the International Bureau of Weights and Measures.</TranslatedText>
  </Decode>
  <Alias Name="C28252" Context="nci:ExtCodeID"/>
</CodeListItem>
<CodeListItem CodedValue="mL">
  <Decode>
    <TranslatedText xml:lang="en">A unit of volume equal to one thousandth (1E-3) of a liter.</TranslatedText>
  </Decode>
  <Alias Name="C28254" Context="nci:ExtCodeID"/>
</CodeListItem>
<CodeListItem CodedValue="mg/kg">
  <Decode>
    <TranslatedText xml:lang="en">A unit of a mass fraction expressed as a number of milligrams of substance per kilogram of mixture. The unit is also used as a dose calculation unit.(NCI)</TranslatedText>
  </Decode>
  <Alias Name="C67401" Context="nci:ExtCodeID"/>
</CodeListItem>
<CodeListItem CodedValue="mmHg">
  <Decode>
    <TranslatedText xml:lang="en">A unit of pressure equal to 0.001316 atmosphere and equal to the pressure indicated by one millimeter rise of mercury in a barometer at the Earth&apos;s surface. (NCI)</TranslatedText>
  </Decode>
  <Alias Name="C49670" Context="nci:ExtCodeID"/>
</CodeListItem>
<CodeListItem CodedValue="mmHg/sec">
  <Decode>
    <TranslatedText xml:lang="en">A rate of inflation or deflation of a manometric device based on the unit of pressure equal to 133,332 Pa or 1.316E10-3 standard atmosphere during period of time equal to one sixtieth of a minute. (NCI)</TranslatedText>
  </Decode>
  <Alias Name="C73764" Context="nci:ExtCodeID"/>
</CodeListItem>
<CodeListItem CodedValue="msec">
  <Decode>
    <TranslatedText xml:lang="en">A unit of time, which is equal to one thousandth of a second.(NCI)</TranslatedText>
  </Decode>
  <Alias Name="C41140" Context="nci:ExtCodeID"/>
</CodeListItem>
  <Alias Name="C71620" Context="nci:ExtCodeID"/>
</CodeList>
<!-- ******************************************** -->
 <!-- Comments Definitions Section                -->
<!-- ******************************************** -->
<def:CommentDef OID="COM.CODTC"><Description> <TranslatedText xml:lang="en">CODTC is an expected variable.  All records for CODTC in this dataset are NULL as no data were collected against it.</TranslatedText></Description>
</def:CommentDef>
<def:CommentDef OID="COM.RFSTDTC"><Description> <TranslatedText xml:lang="en">The date and time the animal was first exposed to study treatment.</TranslatedText></Description>
</def:CommentDef>
<def:CommentDef OID="COM.RFENDTC"><Description> <TranslatedText xml:lang="en">The date and time the animal was given a disposition for a study.</TranslatedText></Description>
</def:CommentDef>
<def:CommentDef OID="COM.AGE"><Description> <TranslatedText xml:lang="en">Calculated based on Subject Reference Start Date/Time minus Date/Time of Birth and converted based on Age units.</TranslatedText></Description>
</def:CommentDef>
<def:CommentDef OID="COM.EXDOSE"><Description> <TranslatedText xml:lang="en">The values in EXDOSE represent intended dose levels.</TranslatedText></Description>
</def:CommentDef>
<def:CommentDef OID="COM.EXSTDY"><Description> <TranslatedText xml:lang="en">Calculated based on Start Date/Time of Treatment minus Subject Reference Start Date/Time, plus one when occurring after Day 1.</TranslatedText></Description>
</def:CommentDef>
<def:CommentDef OID="COM.DS.VISITDY"><Description> <TranslatedText xml:lang="en">Calculated from the scheduled necropsy phase day, in days from the Subject Reference Start Date/Time, plus one when occurring after Day 1.</TranslatedText></Description>
</def:CommentDef>
<def:CommentDef OID="COM.DSSTDY"><Description> <TranslatedText xml:lang="en">DSSTDY is calculated based on Date/Time of Disposition minus Subject Reference Start Date/Time, plus one when occurring after Day 1.</TranslatedText></Description>
</def:CommentDef>
<def:CommentDef OID="COM.DSNOMDY"><Description> <TranslatedText xml:lang="en">Calculated based on the planned necropsy day, in days from the Subject Reference Start Date/Time, plus one when occurring after Day 1.</TranslatedText></Description>
</def:CommentDef>
<def:CommentDef OID="COM.BWBLFL"><Description> <TranslatedText xml:lang="en">BWBLFL is an expected variable.  However, all records are null as Covance does not collect baseline flag data.</TranslatedText></Description>
</def:CommentDef>
<def:CommentDef OID="COM.BW.VISITDY"><Description> <TranslatedText xml:lang="en">Calculated based on the planned date of data collection, in days from the Subject Reference Start Date/Time, plus one when occurring after Day 1.</TranslatedText></Description>
</def:CommentDef>
<def:CommentDef OID="COM.BWDY"><Description> <TranslatedText xml:lang="en">Calculated based on Date/Time of Animal Weighed minus Subject Reference Start Date/Time, plus one when occurring after Day 1.</TranslatedText></Description>
</def:CommentDef>
<def:CommentDef OID="COM.BWNOMDY"><Description> <TranslatedText xml:lang="en">Calculated based on the planned date of data collection, in days from the Subject Reference Start Date/Time, plus one when occurring after Day 1.</TranslatedText></Description>
</def:CommentDef>
<def:CommentDef OID="COM.BWNOMLBL"><Description> <TranslatedText xml:lang="en">Populated with the phase name and the planned date of data collection, in days from the phase start date.</TranslatedText></Description>
</def:CommentDef>
<def:CommentDef OID="COM.BGDY"><Description> <TranslatedText xml:lang="en">Calculated based on Date/Time of Animal Weighed minus Subject Reference Start Date/Time, plus one when occurring after Day 1.</TranslatedText></Description>
</def:CommentDef>
<def:CommentDef OID="COM.BGENDY"><Description> <TranslatedText xml:lang="en">Calculated based on End Date/Time of Animal Weighed minus Subject Reference Start Date/Time, plus one when occurring after Day 1.</TranslatedText></Description>
</def:CommentDef>
<def:CommentDef OID="COM.CVBLFL"><Description> <TranslatedText xml:lang="en">CVBLFL is an expected variable.  However, all records are null as Covance does not collect baseline flag data.</TranslatedText></Description>
</def:CommentDef>
<def:CommentDef OID="COM.CVDY"><Description> <TranslatedText xml:lang="en">Calculated based on Date/Time of Cardiovascular Test minus Subject Reference Start Date/Time, plus one when occurring after Day 1.</TranslatedText></Description>
</def:CommentDef>
<def:CommentDef OID="COM.CVENDY"><Description> <TranslatedText xml:lang="en">Calculated based on End Date/Time of Cardiovascular Test minus Subject Reference Start Date/Time, plus one when occurring after Day 1.</TranslatedText></Description>
</def:CommentDef>
<def:CommentDef OID="COM.CVNOMDY"><Description> <TranslatedText xml:lang="en">Calculated based on the planned date of data collection, in days from the Subject Reference Start Date/Time, plus one when occurring after Day 1.</TranslatedText></Description>
</def:CommentDef>
<def:CommentDef OID="COM.CLGRPID"><Description> <TranslatedText xml:lang="en">CLGRPID is populated by  grouping together records for a subject which are collected at the same timepoint on the same day.  Where multiple findings exist for an animal at a given timepoint, one CLGRPID is applied.  Where only one finding exists for an animal at a given timepoint, the CLGRPID will be unique.</TranslatedText></Description>
</def:CommentDef>
<def:CommentDef OID="COM.CL.VISITDY"><Description> <TranslatedText xml:lang="en">Calculated based on the planned date of data collection, in days from the Subject Reference Start Date/Time, plus one when occurring after Day 1.</TranslatedText></Description>
</def:CommentDef>
<def:CommentDef OID="COM.CLDY"><Description> <TranslatedText xml:lang="en">Calculated based on Date/Time of Observation minus Subject Reference Start Date/Time, plus one when occurring after Day 1.</TranslatedText></Description>
</def:CommentDef>
<def:CommentDef OID="COM.CLNOMDY"><Description> <TranslatedText xml:lang="en">Calculated based on the planned date of data collection, in days from the Subject Reference Start Date/Time, plus one when occurring after Day 1.</TranslatedText></Description>
</def:CommentDef>
<def:CommentDef OID="COM.CLNOMLBL"><Description> <TranslatedText xml:lang="en">Populated with the phase name and the planned date of data collection, in days from the phase start date.</TranslatedText></Description>
</def:CommentDef>
<def:CommentDef OID="COM.EGBLFL"><Description> <TranslatedText xml:lang="en">EGBLFL is an expected variable.  However, all records are null as Covance does not collect baseline flag data.</TranslatedText></Description>
</def:CommentDef>
<def:CommentDef OID="COM.EGDY"><Description> <TranslatedText xml:lang="en">Calculated based on Date/Time of ECG Collection minus Subject Reference Start Date/Time, plus one when occurring after Day 1.</TranslatedText></Description>
</def:CommentDef>
<def:CommentDef OID="COM.EGENDY"><Description> <TranslatedText xml:lang="en">Calculated based on End Date/Time of ECG Collection minus Subject Reference Start Date/Time, plus one when occurring after Day 1.</TranslatedText></Description>
</def:CommentDef>
<def:CommentDef OID="COM.EGNOMDY"><Description> <TranslatedText xml:lang="en">Calculated based on the planned date of data collection, in days from the Subject Reference Start Date/Time, plus one when occurring after Day 1.</TranslatedText></Description>
</def:CommentDef>
<def:CommentDef OID="COM.PCORRES"><Description> <TranslatedText xml:lang="en">Values below the limit of quantitation were treated as zero for normanalysis</TranslatedText></Description>
</def:CommentDef>
<def:CommentDef OID="COM.PCBLFL"><Description> <TranslatedText xml:lang="en">PCBLFL is an expected variable.  However, all records are null as Covance does not collect baseline flag data.</TranslatedText></Description>
</def:CommentDef>
<def:CommentDef OID="COM.PCDTC"><Description> <TranslatedText xml:lang="en">PCDTC is an expected variable which is included in the dataset.  All records for PCDTC are null as the data were not available to the Principal Investigator.</TranslatedText></Description>
</def:CommentDef>
<def:CommentDef OID="COM.PCDY"><Description> <TranslatedText xml:lang="en">Calculated based on Date/Time of Specimen Collection minus Subject Reference Start Date/Time, plus one when occurring after Day 1.</TranslatedText></Description>
</def:CommentDef>
<def:CommentDef OID="COM.PCNOMDY"><Description> <TranslatedText xml:lang="en">Calculated based on the planned date of data collection, in days from the Subject Reference Start Date/Time, plus one when occurring after Day 1.</TranslatedText></Description>
</def:CommentDef>
<def:CommentDef OID="COM.TS.TSPARMCD"><Description> <TranslatedText xml:lang="en">Due to a study set up procedure, the day of the experimental end date is a tentative planned end date.</TranslatedText></Description>
</def:CommentDef>
  <def:leaf ID="LF.nSDRG" xlink:href="nsdrg.pdf">
    <def:title>nSDRG</def:title>
    </def:leaf>
  </MetaDataVersion>
 </Study>
</ODM>
